Date:	2023-08-22		
Time:	18:19		
Sample name:	DP1_DP2_NEB8A		
Position:	985.000049	mm	
Sample surface:	5.973748	cm	
Tube anode:	Mo		
Tube voltage:	30	kV	
Tube current:	30	mA	
Comments	not in position		
Gain	0.060000		
peaking_time	1.500000	m-sec	
trigger_threshold	653.076172	V	
mca_bin_width	17.500000	no:	
number_mca_channels	1024.000000	no:	
gap_time	0.080000	m-sec	
trigger_peaking_time	0.060000	m-sec	
livetime	7.937572	seconds	
runtime	10.007292	seconds	
input_count_rate	27618.315613	cps	
output_count_rate	21905.825921	cps	
triggers	0	seconds	
events_in_run	0	seconds	
channel	content		
 1.00	 0.00
 2.00	 0.00
 3.00	 0.00
 4.00	 0.00
 5.00	 0.00
 6.00	 0.00
 7.00	 0.00
 8.00	 0.00
 9.00	 0.00
10.00	 0.00
11.00	 0.00
12.00	 0.00
13.00	 0.00
14.00	 0.00
15.00	 0.00
16.00	 0.00
17.00	 0.00
18.00	 0.00
19.00	 0.00
20.00	 0.00
21.00	 0.00
22.00	 0.00
23.00	 0.00
24.00	 0.00
25.00	 0.00
26.00	 0.00
27.00	 0.00
28.00	 0.00
29.00	 0.00
30.00	 0.00
31.00	 0.00
32.00	 1.00
33.00	 3.00
34.00	 3.00
35.00	 1.00
36.00	 3.00
37.00	 6.00
38.00	10.00
39.00	14.00
40.00	22.00
41.00	32.00
42.00	44.00
43.00	62.00
44.00	90.00
45.00	105.00
46.00	146.00
47.00	227.00
48.00	262.00
49.00	380.00
50.00	378.00
51.00	533.00
52.00	643.00
53.00	802.00
54.00	919.00
55.00	1066.00
56.00	1266.00
57.00	1416.00
58.00	1614.00
59.00	1893.00
60.00	2060.00
61.00	2227.00
62.00	2412.00
63.00	2650.00
64.00	2747.00
65.00	2896.00
66.00	3043.00
67.00	3256.00
68.00	3292.00
69.00	3369.00
70.00	3387.00
71.00	3385.00
72.00	3396.00
73.00	3428.00
74.00	3398.00
75.00	3361.00
76.00	3241.00
77.00	3318.00
78.00	3268.00
79.00	3216.00
80.00	3475.00
81.00	3547.00
82.00	3717.00
83.00	3876.00
84.00	4005.00
85.00	4354.00
86.00	4221.00
87.00	4193.00
88.00	4040.00
89.00	3702.00
90.00	3643.00
91.00	3371.00
92.00	3186.00
93.00	3251.00
94.00	3508.00
95.00	3759.00
96.00	4154.00
97.00	4911.00
98.00	5623.00
99.00	6326.00
100.00	6672.00
101.00	6710.00
102.00	6370.00
103.00	5766.00
104.00	5118.00
105.00	4440.00
106.00	4003.00
107.00	3754.00
108.00	3641.00
109.00	3648.00
110.00	3713.00
111.00	3786.00
112.00	3886.00
113.00	4060.00
114.00	3779.00
115.00	3684.00
116.00	3562.00
117.00	3239.00
118.00	2941.00
119.00	2789.00
120.00	2588.00
121.00	2381.00
122.00	2373.00
123.00	2240.00
124.00	2259.00
125.00	2279.00
126.00	2478.00
127.00	2622.00
128.00	2844.00
129.00	3167.00
130.00	3556.00
131.00	3769.00
132.00	4029.00
133.00	4191.00
134.00	4057.00
135.00	3752.00
136.00	3342.00
137.00	2923.00
138.00	2545.00
139.00	2232.00
140.00	2076.00
141.00	1982.00
142.00	1898.00
143.00	1844.00
144.00	1918.00
145.00	2090.00
146.00	2222.00
147.00	2307.00
148.00	2679.00
149.00	2809.00
150.00	2952.00
151.00	3121.00
152.00	3167.00
153.00	2901.00
154.00	2773.00
155.00	2807.00
156.00	2662.00
157.00	2719.00
158.00	2626.00
159.00	2733.00
160.00	2622.00
161.00	2634.00
162.00	2721.00
163.00	2981.00
164.00	3538.00
165.00	4161.00
166.00	5043.00
167.00	6206.00
168.00	7236.00
169.00	8260.00
170.00	8572.00
171.00	8332.00
172.00	7707.00
173.00	6547.00
174.00	5383.00
175.00	4238.00
176.00	3300.00
177.00	2582.00
178.00	2418.00
179.00	2352.00
180.00	2488.00
181.00	2823.00
182.00	3264.00
183.00	4243.00
184.00	5728.00
185.00	7521.00
186.00	9757.00
187.00	12311.00
188.00	15229.00
189.00	17100.00
190.00	18637.00
191.00	18729.00
192.00	17517.00
193.00	15058.00
194.00	12341.00
195.00	9353.00
196.00	6965.00
197.00	5082.00
198.00	3692.00
199.00	3230.00
200.00	3398.00
201.00	4217.00
202.00	6114.00
203.00	8955.00
204.00	13895.00
205.00	21267.00
206.00	31654.00
207.00	45655.00
208.00	62219.00
209.00	80159.00
210.00	96724.00
211.00	108578.00
212.00	114168.00
213.00	111120.00
214.00	100388.00
215.00	84149.00
216.00	65716.00
217.00	47375.00
218.00	32167.00
219.00	20719.00
220.00	12695.00
221.00	8513.00
222.00	6345.00
223.00	5644.00
224.00	6371.00
225.00	8181.00
226.00	10278.00
227.00	13025.00
228.00	15782.00
229.00	18130.00
230.00	19545.00
231.00	19398.00
232.00	18723.00
233.00	16299.00
234.00	13601.00
235.00	10505.00
236.00	7878.00
237.00	5704.00
238.00	3962.00
239.00	2950.00
240.00	2368.00
241.00	1979.00
242.00	1768.00
243.00	1778.00
244.00	1795.00
245.00	1959.00
246.00	2377.00
247.00	3161.00
248.00	4562.00
249.00	6947.00
250.00	11164.00
251.00	17705.00
252.00	27113.00
253.00	40679.00
254.00	57435.00
255.00	76860.00
256.00	96039.00
257.00	113399.00
258.00	125069.00
259.00	129139.00
260.00	125443.00
261.00	112742.00
262.00	95778.00
263.00	76480.00
264.00	58712.00
265.00	43663.00
266.00	32202.00
267.00	23538.00
268.00	17848.00
269.00	13672.00
270.00	10904.00
271.00	8956.00
272.00	7805.00
273.00	7239.00
274.00	7177.00
275.00	8171.00
276.00	9251.00
277.00	11539.00
278.00	14169.00
279.00	17333.00
280.00	20768.00
281.00	23137.00
282.00	25470.00
283.00	25941.00
284.00	25274.00
285.00	23539.00
286.00	20195.00
287.00	16765.00
288.00	13473.00
289.00	10331.00
290.00	7931.00
291.00	6361.00
292.00	5174.00
293.00	4519.00
294.00	4331.00
295.00	4007.00
296.00	4211.00
297.00	4340.00
298.00	4473.00
299.00	4758.00
300.00	5119.00
301.00	5221.00
302.00	5542.00
303.00	5820.00
304.00	5767.00
305.00	5941.00
306.00	6123.00
307.00	6172.00
308.00	6235.00
309.00	6074.00
310.00	6049.00
311.00	6050.00
312.00	5976.00
313.00	5832.00
314.00	5499.00
315.00	5409.00
316.00	5222.00
317.00	4997.00
318.00	4983.00
319.00	4975.00
320.00	4853.00
321.00	4837.00
322.00	4752.00
323.00	4757.00
324.00	4827.00
325.00	4829.00
326.00	5114.00
327.00	5169.00
328.00	5543.00
329.00	5834.00
330.00	6483.00
331.00	7365.00
332.00	8369.00
333.00	9441.00
334.00	11037.00
335.00	12596.00
336.00	13744.00
337.00	14799.00
338.00	15143.00
339.00	15231.00
340.00	14559.00
341.00	13840.00
342.00	12557.00
343.00	11400.00
344.00	10525.00
345.00	9772.00
346.00	9269.00
347.00	9189.00
348.00	9694.00
349.00	10440.00
350.00	11601.00
351.00	13877.00
352.00	17283.00
353.00	24085.00
354.00	36219.00
355.00	58188.00
356.00	95647.00
357.00	157081.00
358.00	254161.00
359.00	397635.00
360.00	595405.00
361.00	848744.00
362.00	1154554.00
363.00	1486189.00
364.00	1809945.00
365.00	2082695.00
366.00	2264591.00
367.00	2318278.00
368.00	2241928.00
369.00	2049115.00
370.00	1764024.00
371.00	1431239.00
372.00	1094508.00
373.00	793605.00
374.00	544324.00
375.00	352823.00
376.00	219670.00
377.00	131549.00
378.00	77269.00
379.00	46320.00
380.00	29205.00
381.00	20731.00
382.00	16816.00
383.00	14986.00
384.00	14395.00
385.00	14205.00
386.00	14634.00
387.00	15174.00
388.00	16160.00
389.00	17297.00
390.00	19172.00
391.00	22211.00
392.00	26651.00
393.00	33460.00
394.00	43269.00
395.00	58760.00
396.00	80088.00
397.00	109980.00
398.00	147338.00
399.00	192799.00
400.00	243174.00
401.00	292086.00
402.00	338174.00
403.00	372528.00
404.00	387544.00
405.00	385920.00
406.00	361686.00
407.00	323646.00
408.00	274483.00
409.00	221362.00
410.00	169337.00
411.00	124345.00
412.00	87746.00
413.00	60226.00
414.00	40333.00
415.00	27296.00
416.00	19810.00
417.00	15518.00
418.00	12698.00
419.00	11417.00
420.00	11216.00
421.00	11051.00
422.00	11572.00
423.00	12147.00
424.00	12662.00
425.00	13192.00
426.00	13692.00
427.00	14443.00
428.00	14451.00
429.00	14670.00
430.00	14489.00
431.00	13886.00
432.00	13650.00
433.00	13185.00
434.00	12663.00
435.00	12139.00
436.00	11952.00
437.00	11674.00
438.00	11747.00
439.00	11646.00
440.00	11720.00
441.00	11683.00
442.00	11756.00
443.00	11860.00
444.00	12115.00
445.00	11964.00
446.00	12280.00
447.00	12457.00
448.00	12559.00
449.00	12935.00
450.00	13192.00
451.00	13047.00
452.00	13710.00
453.00	14125.00
454.00	14282.00
455.00	14605.00
456.00	14882.00
457.00	15512.00
458.00	15760.00
459.00	16425.00
460.00	16607.00
461.00	16752.00
462.00	17235.00
463.00	16943.00
464.00	16987.00
465.00	17087.00
466.00	17274.00
467.00	17023.00
468.00	16958.00
469.00	17221.00
470.00	17058.00
471.00	17477.00
472.00	17383.00
473.00	17961.00
474.00	18254.00
475.00	18401.00
476.00	18833.00
477.00	19252.00
478.00	19507.00
479.00	19757.00
480.00	20046.00
481.00	20033.00
482.00	19944.00
483.00	20083.00
484.00	20290.00
485.00	20374.00
486.00	20853.00
487.00	21312.00
488.00	22124.00
489.00	23367.00
490.00	24683.00
491.00	25910.00
492.00	27442.00
493.00	28502.00
494.00	29041.00
495.00	29026.00
496.00	28992.00
497.00	27951.00
498.00	26698.00
499.00	25709.00
500.00	24250.00
501.00	22980.00
502.00	22436.00
503.00	21452.00
504.00	21201.00
505.00	20673.00
506.00	20926.00
507.00	20617.00
508.00	20730.00
509.00	20693.00
510.00	21019.00
511.00	21352.00
512.00	21115.00
513.00	21412.00
514.00	21671.00
515.00	21744.00
516.00	21803.00
517.00	21811.00
518.00	22099.00
519.00	22675.00
520.00	22811.00
521.00	23288.00
522.00	23903.00
523.00	23812.00
524.00	24545.00
525.00	25342.00
526.00	25647.00
527.00	26026.00
528.00	26437.00
529.00	26748.00
530.00	27096.00
531.00	27547.00
532.00	27330.00
533.00	27608.00
534.00	27265.00
535.00	27115.00
536.00	26959.00
537.00	26907.00
538.00	26636.00
539.00	26998.00
540.00	27091.00
541.00	27520.00
542.00	27887.00
543.00	28045.00
544.00	28299.00
545.00	28805.00
546.00	29202.00
547.00	29414.00
548.00	29817.00
549.00	29853.00
550.00	30119.00
551.00	30586.00
552.00	30198.00
553.00	30434.00
554.00	30001.00
555.00	30055.00
556.00	30063.00
557.00	29680.00
558.00	29681.00
559.00	29334.00
560.00	29090.00
561.00	29262.00
562.00	29222.00
563.00	29234.00
564.00	29402.00
565.00	29446.00
566.00	29653.00
567.00	29918.00
568.00	29573.00
569.00	29887.00
570.00	30087.00
571.00	29967.00
572.00	30022.00
573.00	30163.00
574.00	30426.00
575.00	30416.00
576.00	30367.00
577.00	30668.00
578.00	30063.00
579.00	30650.00
580.00	30467.00
581.00	30460.00
582.00	31183.00
583.00	31053.00
584.00	31272.00
585.00	31385.00
586.00	31761.00
587.00	31544.00
588.00	31750.00
589.00	32020.00
590.00	32373.00
591.00	32230.00
592.00	32621.00
593.00	32721.00
594.00	32690.00
595.00	32628.00
596.00	32885.00
597.00	33079.00
598.00	33308.00
599.00	33719.00
600.00	33779.00
601.00	33770.00
602.00	34000.00
603.00	34341.00
604.00	34225.00
605.00	34760.00
606.00	34983.00
607.00	34720.00
608.00	34969.00
609.00	34949.00
610.00	34910.00
611.00	35463.00
612.00	35422.00
613.00	35490.00
614.00	35374.00
615.00	35612.00
616.00	36221.00
617.00	36564.00
618.00	36452.00
619.00	36650.00
620.00	37073.00
621.00	37078.00
622.00	37071.00
623.00	37567.00
624.00	37790.00
625.00	37724.00
626.00	38130.00
627.00	38140.00
628.00	38663.00
629.00	38288.00
630.00	38362.00
631.00	38249.00
632.00	39031.00
633.00	39016.00
634.00	39016.00
635.00	39273.00
636.00	39575.00
637.00	39476.00
638.00	39558.00
639.00	39881.00
640.00	40406.00
641.00	40249.00
642.00	40393.00
643.00	40693.00
644.00	41107.00
645.00	41061.00
646.00	40839.00
647.00	41001.00
648.00	41637.00
649.00	41320.00
650.00	41303.00
651.00	41580.00
652.00	41426.00
653.00	41884.00
654.00	41565.00
655.00	42464.00
656.00	42034.00
657.00	42421.00
658.00	42185.00
659.00	42758.00
660.00	42679.00
661.00	42830.00
662.00	43202.00
663.00	43351.00
664.00	43365.00
665.00	43607.00
666.00	43449.00
667.00	43822.00
668.00	44448.00
669.00	44700.00
670.00	44860.00
671.00	44933.00
672.00	45802.00
673.00	45959.00
674.00	46913.00
675.00	47445.00
676.00	47960.00
677.00	49074.00
678.00	49899.00
679.00	50061.00
680.00	50902.00
681.00	51400.00
682.00	51366.00
683.00	51483.00
684.00	51051.00
685.00	50438.00
686.00	49727.00
687.00	49537.00
688.00	48701.00
689.00	48231.00
690.00	48111.00
691.00	47983.00
692.00	48180.00
693.00	47405.00
694.00	46815.00
695.00	47004.00
696.00	47350.00
697.00	47465.00
698.00	47394.00
699.00	47592.00
700.00	47496.00
701.00	47842.00
702.00	47789.00
703.00	48132.00
704.00	48632.00
705.00	48739.00
706.00	48653.00
707.00	48321.00
708.00	48887.00
709.00	49091.00
710.00	49247.00
711.00	49360.00
712.00	49571.00
713.00	50281.00
714.00	49426.00
715.00	50072.00
716.00	50223.00
717.00	50044.00
718.00	50056.00
719.00	50620.00
720.00	51064.00
721.00	50880.00
722.00	50890.00
723.00	51278.00
724.00	51401.00
725.00	51818.00
726.00	51863.00
727.00	51914.00
728.00	52140.00
729.00	52433.00
730.00	52257.00
731.00	53114.00
732.00	53117.00
733.00	53070.00
734.00	53160.00
735.00	52905.00
736.00	53328.00
737.00	53361.00
738.00	53402.00
739.00	53562.00
740.00	53734.00
741.00	53524.00
742.00	53764.00
743.00	53433.00
744.00	53909.00
745.00	53721.00
746.00	54076.00
747.00	53966.00
748.00	54215.00
749.00	53923.00
750.00	54560.00
751.00	54727.00
752.00	54445.00
753.00	55119.00
754.00	55469.00
755.00	56296.00
756.00	56672.00
757.00	57339.00
758.00	57440.00
759.00	58384.00
760.00	59137.00
761.00	59812.00
762.00	59975.00
763.00	60484.00
764.00	61065.00
765.00	60292.00
766.00	60659.00
767.00	60616.00
768.00	60659.00
769.00	59958.00
770.00	59506.00
771.00	59084.00
772.00	58426.00
773.00	57982.00
774.00	57926.00
775.00	57740.00
776.00	57070.00
777.00	57123.00
778.00	57311.00
779.00	57566.00
780.00	56671.00
781.00	56904.00
782.00	57348.00
783.00	56853.00
784.00	56893.00
785.00	57996.00
786.00	57212.00
787.00	57482.00
788.00	57500.00
789.00	57594.00
790.00	58268.00
791.00	59063.00
792.00	59456.00
793.00	61046.00
794.00	62028.00
795.00	64069.00
796.00	67329.00
797.00	71191.00
798.00	76503.00
799.00	83417.00
800.00	91837.00
801.00	101190.00
802.00	112358.00
803.00	124025.00
804.00	135268.00
805.00	146946.00
806.00	156507.00
807.00	163933.00
808.00	168357.00
809.00	169837.00
810.00	167153.00
811.00	162341.00
812.00	154217.00
813.00	144447.00
814.00	132239.00
815.00	120496.00
816.00	108358.00
817.00	97782.00
818.00	88519.00
819.00	79750.00
820.00	73654.00
821.00	68281.00
822.00	65231.00
823.00	62550.00
824.00	61037.00
825.00	59499.00
826.00	58771.00
827.00	58258.00
828.00	58526.00
829.00	58023.00
830.00	57900.00
831.00	58045.00
832.00	57643.00
833.00	58066.00
834.00	57976.00
835.00	58563.00
836.00	58476.00
837.00	57574.00
838.00	58885.00
839.00	58038.00
840.00	58326.00
841.00	58477.00
842.00	58979.00
843.00	58953.00
844.00	59656.00
845.00	59652.00
846.00	60325.00
847.00	61021.00
848.00	60654.00
849.00	61518.00
850.00	62090.00
851.00	62842.00
852.00	63035.00
853.00	63546.00
854.00	63458.00
855.00	63416.00
856.00	63374.00
857.00	62947.00
858.00	62979.00
859.00	62728.00
860.00	61735.00
861.00	61971.00
862.00	61306.00
863.00	61134.00
864.00	60986.00
865.00	60972.00
866.00	60351.00
867.00	60815.00
868.00	60435.00
869.00	61156.00
870.00	60842.00
871.00	61542.00
872.00	61159.00
873.00	61359.00
874.00	61457.00
875.00	61366.00
876.00	61559.00
877.00	61782.00
878.00	62070.00
879.00	62721.00
880.00	62375.00
881.00	63241.00
882.00	63481.00
883.00	63872.00
884.00	64129.00
885.00	65181.00
886.00	65630.00
887.00	66585.00
888.00	67644.00
889.00	69203.00
890.00	71316.00
891.00	73698.00
892.00	76002.00
893.00	78794.00
894.00	81493.00
895.00	85152.00
896.00	88735.00
897.00	92879.00
898.00	96507.00
899.00	100252.00
900.00	102586.00
901.00	105466.00
902.00	107498.00
903.00	108914.00
904.00	108898.00
905.00	108985.00
906.00	107722.00
907.00	106744.00
908.00	103756.00
909.00	101680.00
910.00	100670.00
911.00	99316.00
912.00	97816.00
913.00	97924.00
914.00	97911.00
915.00	99021.00
916.00	101268.00
917.00	103007.00
918.00	106337.00
919.00	109640.00
920.00	113518.00
921.00	117781.00
922.00	122813.00
923.00	128114.00
924.00	134830.00
925.00	141083.00
926.00	147442.00
927.00	154830.00
928.00	161796.00
929.00	169830.00
930.00	176926.00
931.00	184824.00
932.00	191258.00
933.00	199995.00
934.00	205897.00
935.00	212264.00
936.00	218523.00
937.00	223784.00
938.00	228894.00
939.00	231151.00
940.00	234208.00
941.00	234269.00
942.00	234988.00
943.00	233854.00
944.00	232623.00
945.00	230673.00
946.00	226997.00
947.00	221870.00
948.00	216359.00
949.00	210429.00
950.00	203059.00
951.00	195860.00
952.00	189043.00
953.00	180885.00
954.00	172418.00
955.00	164290.00
956.00	156633.00
957.00	148596.00
958.00	140937.00
959.00	134020.00
960.00	127410.00
961.00	120196.00
962.00	114520.00
963.00	108282.00
964.00	103284.00
965.00	98600.00
966.00	94062.00
967.00	89355.00
968.00	86173.00
969.00	82269.00
970.00	79452.00
971.00	76823.00
972.00	74394.00
973.00	72156.00
974.00	69481.00
975.00	68173.00
976.00	66365.00
977.00	65541.00
978.00	65123.00
979.00	64515.00
980.00	64378.00
981.00	65774.00
982.00	66702.00
983.00	69295.00
984.00	72437.00
985.00	77021.00
986.00	82639.00
987.00	89027.00
988.00	96724.00
989.00	104760.00
990.00	113851.00
991.00	122740.00
992.00	131523.00
993.00	140308.00
994.00	146669.00
995.00	153142.00
996.00	157037.00
997.00	157688.00
998.00	157082.00
999.00	154068.00
1000.00	148526.00
1001.00	141191.00
1002.00	131750.00
1003.00	121675.00
1004.00	111505.00
1005.00	100704.00
1006.00	90457.00
1007.00	82175.00
1008.00	74327.00
1009.00	67413.00
1010.00	61917.00
1011.00	57474.00
1012.00	53996.00
1013.00	51508.00
1014.00	50062.00
1015.00	48392.00
1016.00	47326.00
1017.00	46638.00
1018.00	46195.00
1019.00	45598.00
1020.00	45858.00
1021.00	45679.00
1022.00	46047.00
1023.00	45849.00
1024.00	46044.00
