Date:	2023-08-23		
Time:	15:42		
Sample name:	MI1A_B_C		
Position:	1606.000049	mm	
Sample surface:	4.476925	cm	
Tube anode:	Mo		
Tube voltage:	30	kV	
Tube current:	30	mA	
Comments	not in position		
Gain	0.060000		
peaking_time	1.500000	m-sec	
trigger_threshold	653.076172	V	
mca_bin_width	17.500000	no:	
number_mca_channels	1024.000000	no:	
gap_time	0.080000	m-sec	
trigger_peaking_time	0.060000	m-sec	
livetime	6.116145	seconds	
runtime	10.007583	seconds	
input_count_rate	69013.400715	cps	
output_count_rate	42177.416696	cps	
triggers	0	seconds	
events_in_run	0	seconds	
channel	content		
 1.00	 0.00
 2.00	 0.00
 3.00	 0.00
 4.00	 0.00
 5.00	 0.00
 6.00	 0.00
 7.00	 0.00
 8.00	 0.00
 9.00	 0.00
10.00	 0.00
11.00	 0.00
12.00	 0.00
13.00	 0.00
14.00	 0.00
15.00	 0.00
16.00	 0.00
17.00	 0.00
18.00	 0.00
19.00	 0.00
20.00	 0.00
21.00	 0.00
22.00	 0.00
23.00	 0.00
24.00	 0.00
25.00	 0.00
26.00	 0.00
27.00	 0.00
28.00	 0.00
29.00	 0.00
30.00	 0.00
31.00	 1.00
32.00	 4.00
33.00	 4.00
34.00	 6.00
35.00	10.00
36.00	24.00
37.00	24.00
38.00	43.00
39.00	62.00
40.00	82.00
41.00	138.00
42.00	176.00
43.00	281.00
44.00	331.00
45.00	484.00
46.00	655.00
47.00	894.00
48.00	1116.00
49.00	1406.00
50.00	1814.00
51.00	2256.00
52.00	2764.00
53.00	3388.00
54.00	3923.00
55.00	4723.00
56.00	5474.00
57.00	6269.00
58.00	7173.00
59.00	8059.00
60.00	8714.00
61.00	9595.00
62.00	10244.00
63.00	11189.00
64.00	11631.00
65.00	12246.00
66.00	12818.00
67.00	13219.00
68.00	13424.00
69.00	13582.00
70.00	13924.00
71.00	13970.00
72.00	13922.00
73.00	13940.00
74.00	13993.00
75.00	13848.00
76.00	13734.00
77.00	13634.00
78.00	13544.00
79.00	13225.00
80.00	13259.00
81.00	13256.00
82.00	13432.00
83.00	13765.00
84.00	13856.00
85.00	13601.00
86.00	13629.00
87.00	13349.00
88.00	12800.00
89.00	12204.00
90.00	11946.00
91.00	11504.00
92.00	11072.00
93.00	10638.00
94.00	10571.00
95.00	10596.00
96.00	10183.00
97.00	10177.00
98.00	10057.00
99.00	9921.00
100.00	10148.00
101.00	10038.00
102.00	9938.00
103.00	9740.00
104.00	9410.00
105.00	9420.00
106.00	9302.00
107.00	9302.00
108.00	9306.00
109.00	9448.00
110.00	9170.00
111.00	8822.00
112.00	9015.00
113.00	8640.00
114.00	8489.00
115.00	8268.00
116.00	8085.00
117.00	8070.00
118.00	7967.00
119.00	7754.00
120.00	7665.00
121.00	7464.00
122.00	7244.00
123.00	7020.00
124.00	7070.00
125.00	7057.00
126.00	6811.00
127.00	6769.00
128.00	6768.00
129.00	6536.00
130.00	6565.00
131.00	6572.00
132.00	6593.00
133.00	6481.00
134.00	6456.00
135.00	6199.00
136.00	6083.00
137.00	5972.00
138.00	5709.00
139.00	5588.00
140.00	5417.00
141.00	5392.00
142.00	5243.00
143.00	5240.00
144.00	5258.00
145.00	5218.00
146.00	5119.00
147.00	4896.00
148.00	4888.00
149.00	4920.00
150.00	4867.00
151.00	4879.00
152.00	4734.00
153.00	4681.00
154.00	4618.00
155.00	4540.00
156.00	4585.00
157.00	4431.00
158.00	4433.00
159.00	4417.00
160.00	4479.00
161.00	4580.00
162.00	4814.00
163.00	5343.00
164.00	5785.00
165.00	6899.00
166.00	8056.00
167.00	9365.00
168.00	10795.00
169.00	11694.00
170.00	12323.00
171.00	11986.00
172.00	11233.00
173.00	9887.00
174.00	8490.00
175.00	7196.00
176.00	5975.00
177.00	5209.00
178.00	4715.00
179.00	4567.00
180.00	4328.00
181.00	4395.00
182.00	4488.00
183.00	4664.00
184.00	4648.00
185.00	4484.00
186.00	4378.00
187.00	4280.00
188.00	4102.00
189.00	3934.00
190.00	3829.00
191.00	3719.00
192.00	3588.00
193.00	3489.00
194.00	3629.00
195.00	3456.00
196.00	3399.00
197.00	3399.00
198.00	3279.00
199.00	3377.00
200.00	3442.00
201.00	3409.00
202.00	3503.00
203.00	3645.00
204.00	3920.00
205.00	4234.00
206.00	4586.00
207.00	5356.00
208.00	6244.00
209.00	6851.00
210.00	7628.00
211.00	8197.00
212.00	8667.00
213.00	8456.00
214.00	7898.00
215.00	7199.00
216.00	6192.00
217.00	5341.00
218.00	4745.00
219.00	4146.00
220.00	3833.00
221.00	3677.00
222.00	3537.00
223.00	3476.00
224.00	3528.00
225.00	3644.00
226.00	3721.00
227.00	3754.00
228.00	3814.00
229.00	3983.00
230.00	4165.00
231.00	4165.00
232.00	4024.00
233.00	3910.00
234.00	3909.00
235.00	3778.00
236.00	3723.00
237.00	3647.00
238.00	3584.00
239.00	3595.00
240.00	3582.00
241.00	3332.00
242.00	3535.00
243.00	3454.00
244.00	3560.00
245.00	3564.00
246.00	3591.00
247.00	3590.00
248.00	3764.00
249.00	4052.00
250.00	4175.00
251.00	4384.00
252.00	4749.00
253.00	5453.00
254.00	6047.00
255.00	6683.00
256.00	7727.00
257.00	8430.00
258.00	8995.00
259.00	9149.00
260.00	8916.00
261.00	8758.00
262.00	8135.00
263.00	7590.00
264.00	6833.00
265.00	6432.00
266.00	5975.00
267.00	5795.00
268.00	5662.00
269.00	5376.00
270.00	5456.00
271.00	5326.00
272.00	5288.00
273.00	5148.00
274.00	5418.00
275.00	5452.00
276.00	5499.00
277.00	5701.00
278.00	5901.00
279.00	6078.00
280.00	6470.00
281.00	6623.00
282.00	6939.00
283.00	6831.00
284.00	7105.00
285.00	7039.00
286.00	7070.00
287.00	6883.00
288.00	7001.00
289.00	7144.00
290.00	6779.00
291.00	6882.00
292.00	6909.00
293.00	7070.00
294.00	7134.00
295.00	7386.00
296.00	7511.00
297.00	7668.00
298.00	7631.00
299.00	7714.00
300.00	7937.00
301.00	8196.00
302.00	8303.00
303.00	8468.00
304.00	8669.00
305.00	8901.00
306.00	9071.00
307.00	9334.00
308.00	9463.00
309.00	9626.00
310.00	9962.00
311.00	10011.00
312.00	10214.00
313.00	10222.00
314.00	10349.00
315.00	10425.00
316.00	10322.00
317.00	10420.00
318.00	10232.00
319.00	10399.00
320.00	10772.00
321.00	10750.00
322.00	11008.00
323.00	11063.00
324.00	11228.00
325.00	11289.00
326.00	11637.00
327.00	11975.00
328.00	12031.00
329.00	12356.00
330.00	12432.00
331.00	12676.00
332.00	12650.00
333.00	13104.00
334.00	13613.00
335.00	13589.00
336.00	13740.00
337.00	14211.00
338.00	14293.00
339.00	14621.00
340.00	14373.00
341.00	14821.00
342.00	14948.00
343.00	15045.00
344.00	15084.00
345.00	15313.00
346.00	15366.00
347.00	15554.00
348.00	15986.00
349.00	16352.00
350.00	16680.00
351.00	16953.00
352.00	17602.00
353.00	18529.00
354.00	19716.00
355.00	21559.00
356.00	25054.00
357.00	30247.00
358.00	38368.00
359.00	50613.00
360.00	66133.00
361.00	87237.00
362.00	111880.00
363.00	139945.00
364.00	165852.00
365.00	188002.00
366.00	203705.00
367.00	208070.00
368.00	203186.00
369.00	188207.00
370.00	164643.00
371.00	137851.00
372.00	111583.00
373.00	87089.00
374.00	66731.00
375.00	51256.00
376.00	40539.00
377.00	33655.00
378.00	29331.00
379.00	26993.00
380.00	25909.00
381.00	25439.00
382.00	25440.00
383.00	25782.00
384.00	26307.00
385.00	26541.00
386.00	26709.00
387.00	27207.00
388.00	27452.00
389.00	28164.00
390.00	28564.00
391.00	29037.00
392.00	29759.00
393.00	30556.00
394.00	31607.00
395.00	33351.00
396.00	35644.00
397.00	38228.00
398.00	41527.00
399.00	45820.00
400.00	49992.00
401.00	54437.00
402.00	58326.00
403.00	61922.00
404.00	62992.00
405.00	63479.00
406.00	62476.00
407.00	59051.00
408.00	55844.00
409.00	51970.00
410.00	48662.00
411.00	45157.00
412.00	42662.00
413.00	40699.00
414.00	39830.00
415.00	39298.00
416.00	39186.00
417.00	39501.00
418.00	40113.00
419.00	41375.00
420.00	42659.00
421.00	44291.00
422.00	46084.00
423.00	48359.00
424.00	50796.00
425.00	53540.00
426.00	55490.00
427.00	57090.00
428.00	58391.00
429.00	57798.00
430.00	57391.00
431.00	56668.00
432.00	55358.00
433.00	53206.00
434.00	52264.00
435.00	50897.00
436.00	50027.00
437.00	49143.00
438.00	49403.00
439.00	49462.00
440.00	48800.00
441.00	49716.00
442.00	49710.00
443.00	50348.00
444.00	50905.00
445.00	51443.00
446.00	52060.00
447.00	52954.00
448.00	53401.00
449.00	54300.00
450.00	54686.00
451.00	55584.00
452.00	56466.00
453.00	57101.00
454.00	58328.00
455.00	59028.00
456.00	60004.00
457.00	62210.00
458.00	63325.00
459.00	64496.00
460.00	66104.00
461.00	67099.00
462.00	68930.00
463.00	70160.00
464.00	71437.00
465.00	71609.00
466.00	72752.00
467.00	73155.00
468.00	74085.00
469.00	73839.00
470.00	75001.00
471.00	75099.00
472.00	75955.00
473.00	76130.00
474.00	76779.00
475.00	76720.00
476.00	77633.00
477.00	78071.00
478.00	78437.00
479.00	78731.00
480.00	78951.00
481.00	78641.00
482.00	79144.00
483.00	78233.00
484.00	77421.00
485.00	76560.00
486.00	76525.00
487.00	75878.00
488.00	75898.00
489.00	75412.00
490.00	75376.00
491.00	75565.00
492.00	75979.00
493.00	76556.00
494.00	76961.00
495.00	77900.00
496.00	77743.00
497.00	78619.00
498.00	79018.00
499.00	79321.00
500.00	80091.00
501.00	80736.00
502.00	81475.00
503.00	81482.00
504.00	82703.00
505.00	83304.00
506.00	83497.00
507.00	85071.00
508.00	85662.00
509.00	85977.00
510.00	86706.00
511.00	87403.00
512.00	88020.00
513.00	88905.00
514.00	89180.00
515.00	90546.00
516.00	91180.00
517.00	91164.00
518.00	92147.00
519.00	92993.00
520.00	94093.00
521.00	94678.00
522.00	95821.00
523.00	96263.00
524.00	98211.00
525.00	98856.00
526.00	100431.00
527.00	101873.00
528.00	102715.00
529.00	103413.00
530.00	104969.00
531.00	106703.00
532.00	108099.00
533.00	108779.00
534.00	110257.00
535.00	110693.00
536.00	112201.00
537.00	112918.00
538.00	114141.00
539.00	113929.00
540.00	114778.00
541.00	115773.00
542.00	116060.00
543.00	116811.00
544.00	117776.00
545.00	118844.00
546.00	119136.00
547.00	120035.00
548.00	121673.00
549.00	122162.00
550.00	123381.00
551.00	124314.00
552.00	125201.00
553.00	125797.00
554.00	127098.00
555.00	126723.00
556.00	126982.00
557.00	127404.00
558.00	127121.00
559.00	126640.00
560.00	126700.00
561.00	128143.00
562.00	127524.00
563.00	127456.00
564.00	127885.00
565.00	128573.00
566.00	129023.00
567.00	130040.00
568.00	129621.00
569.00	131440.00
570.00	131459.00
571.00	132323.00
572.00	132092.00
573.00	133323.00
574.00	133697.00
575.00	134170.00
576.00	134439.00
577.00	136414.00
578.00	134972.00
579.00	135685.00
580.00	136438.00
581.00	136970.00
582.00	136797.00
583.00	138669.00
584.00	138685.00
585.00	139698.00
586.00	140541.00
587.00	140885.00
588.00	141588.00
589.00	142922.00
590.00	142622.00
591.00	144426.00
592.00	144308.00
593.00	145037.00
594.00	146359.00
595.00	146195.00
596.00	147427.00
597.00	148760.00
598.00	148449.00
599.00	149588.00
600.00	151198.00
601.00	151368.00
602.00	151970.00
603.00	153137.00
604.00	153025.00
605.00	154306.00
606.00	155154.00
607.00	155716.00
608.00	156003.00
609.00	157444.00
610.00	158622.00
611.00	158912.00
612.00	159804.00
613.00	160123.00
614.00	161990.00
615.00	162289.00
616.00	164377.00
617.00	164333.00
618.00	164567.00
619.00	166103.00
620.00	167542.00
621.00	167891.00
622.00	168858.00
623.00	169731.00
624.00	169258.00
625.00	170679.00
626.00	171392.00
627.00	171458.00
628.00	172908.00
629.00	172991.00
630.00	173381.00
631.00	174496.00
632.00	174819.00
633.00	175425.00
634.00	176312.00
635.00	176881.00
636.00	178520.00
637.00	178740.00
638.00	179497.00
639.00	180612.00
640.00	181572.00
641.00	181447.00
642.00	182646.00
643.00	183228.00
644.00	184728.00
645.00	184707.00
646.00	186485.00
647.00	186830.00
648.00	187315.00
649.00	188506.00
650.00	188409.00
651.00	188665.00
652.00	190205.00
653.00	190516.00
654.00	191084.00
655.00	191156.00
656.00	192158.00
657.00	193131.00
658.00	193588.00
659.00	194534.00
660.00	195001.00
661.00	195592.00
662.00	196483.00
663.00	197817.00
664.00	198113.00
665.00	199581.00
666.00	200689.00
667.00	200840.00
668.00	201753.00
669.00	203723.00
670.00	205170.00
671.00	208332.00
672.00	209858.00
673.00	213551.00
674.00	216538.00
675.00	220563.00
676.00	224482.00
677.00	230207.00
678.00	233648.00
679.00	236928.00
680.00	239470.00
681.00	240821.00
682.00	242021.00
683.00	241695.00
684.00	240013.00
685.00	237950.00
686.00	234941.00
687.00	231722.00
688.00	228741.00
689.00	227543.00
690.00	223101.00
691.00	222374.00
692.00	220719.00
693.00	220873.00
694.00	219986.00
695.00	220951.00
696.00	219906.00
697.00	220760.00
698.00	221858.00
699.00	221555.00
700.00	223218.00
701.00	222818.00
702.00	223091.00
703.00	224585.00
704.00	225251.00
705.00	225069.00
706.00	225973.00
707.00	227491.00
708.00	228100.00
709.00	228433.00
710.00	229287.00
711.00	229835.00
712.00	230323.00
713.00	230469.00
714.00	231923.00
715.00	232948.00
716.00	232766.00
717.00	233147.00
718.00	234632.00
719.00	234453.00
720.00	234779.00
721.00	236184.00
722.00	236571.00
723.00	237322.00
724.00	237990.00
725.00	238275.00
726.00	238697.00
727.00	240364.00
728.00	239815.00
729.00	239758.00
730.00	240868.00
731.00	240980.00
732.00	242532.00
733.00	242620.00
734.00	243004.00
735.00	242805.00
736.00	243443.00
737.00	244064.00
738.00	245070.00
739.00	244953.00
740.00	245787.00
741.00	245994.00
742.00	246984.00
743.00	247851.00
744.00	247665.00
745.00	248280.00
746.00	249724.00
747.00	249507.00
748.00	250122.00
749.00	250532.00
750.00	251823.00
751.00	251969.00
752.00	253736.00
753.00	253702.00
754.00	254297.00
755.00	256834.00
756.00	257304.00
757.00	259151.00
758.00	259870.00
759.00	260326.00
760.00	259969.00
761.00	261574.00
762.00	260592.00
763.00	260975.00
764.00	261309.00
765.00	260760.00
766.00	260800.00
767.00	261418.00
768.00	259216.00
769.00	260292.00
770.00	260012.00
771.00	261016.00
772.00	261516.00
773.00	260735.00
774.00	260587.00
775.00	262429.00
776.00	260877.00
777.00	260976.00
778.00	261517.00
779.00	262119.00
780.00	262146.00
781.00	262780.00
782.00	262854.00
783.00	263636.00
784.00	263841.00
785.00	264154.00
786.00	264449.00
787.00	265107.00
788.00	264866.00
789.00	265189.00
790.00	265013.00
791.00	266517.00
792.00	266558.00
793.00	266576.00
794.00	268067.00
795.00	267598.00
796.00	268573.00
797.00	268019.00
798.00	268875.00
799.00	270577.00
800.00	270475.00
801.00	270215.00
802.00	271487.00
803.00	272602.00
804.00	272948.00
805.00	272942.00
806.00	274730.00
807.00	273445.00
808.00	274428.00
809.00	275552.00
810.00	275403.00
811.00	276109.00
812.00	276214.00
813.00	276394.00
814.00	274549.00
815.00	275794.00
816.00	275422.00
817.00	275472.00
818.00	275332.00
819.00	276230.00
820.00	276164.00
821.00	275196.00
822.00	276083.00
823.00	277745.00
824.00	275934.00
825.00	276481.00
826.00	276477.00
827.00	277500.00
828.00	278094.00
829.00	278615.00
830.00	278413.00
831.00	278419.00
832.00	278972.00
833.00	279744.00
834.00	280235.00
835.00	280436.00
836.00	280710.00
837.00	280196.00
838.00	281052.00
839.00	281128.00
840.00	281693.00
841.00	283072.00
842.00	282123.00
843.00	283938.00
844.00	283189.00
845.00	283855.00
846.00	284894.00
847.00	283823.00
848.00	285300.00
849.00	285260.00
850.00	285742.00
851.00	286877.00
852.00	286139.00
853.00	287801.00
854.00	287585.00
855.00	288428.00
856.00	288564.00
857.00	288456.00
858.00	288637.00
859.00	288808.00
860.00	289699.00
861.00	289611.00
862.00	291587.00
863.00	292003.00
864.00	291838.00
865.00	293168.00
866.00	293489.00
867.00	293869.00
868.00	294293.00
869.00	295081.00
870.00	295445.00
871.00	296327.00
872.00	297393.00
873.00	297976.00
874.00	299560.00
875.00	300410.00
876.00	301590.00
877.00	302653.00
878.00	303703.00
879.00	303802.00
880.00	304600.00
881.00	307313.00
882.00	308684.00
883.00	309867.00
884.00	311394.00
885.00	313113.00
886.00	315226.00
887.00	316220.00
888.00	317321.00
889.00	320810.00
890.00	322756.00
891.00	324298.00
892.00	327555.00
893.00	329739.00
894.00	332842.00
895.00	335640.00
896.00	338304.00
897.00	341184.00
898.00	345762.00
899.00	350766.00
900.00	353078.00
901.00	358492.00
902.00	362465.00
903.00	368745.00
904.00	373164.00
905.00	379043.00
906.00	384580.00
907.00	392653.00
908.00	401647.00
909.00	410241.00
910.00	420194.00
911.00	431139.00
912.00	442684.00
913.00	456387.00
914.00	469842.00
915.00	487374.00
916.00	505123.00
917.00	527613.00
918.00	549885.00
919.00	575456.00
920.00	603900.00
921.00	633113.00
922.00	667519.00
923.00	700908.00
924.00	739842.00
925.00	780985.00
926.00	822842.00
927.00	865722.00
928.00	911032.00
929.00	958891.00
930.00	1005071.00
931.00	1048385.00
932.00	1092005.00
933.00	1132526.00
934.00	1169229.00
935.00	1202485.00
936.00	1232363.00
937.00	1258602.00
938.00	1276372.00
939.00	1292161.00
940.00	1298321.00
941.00	1301007.00
942.00	1292197.00
943.00	1279764.00
944.00	1262243.00
945.00	1239173.00
946.00	1211099.00
947.00	1176262.00
948.00	1140786.00
949.00	1099849.00
950.00	1057170.00
951.00	1010368.00
952.00	965255.00
953.00	915778.00
954.00	870624.00
955.00	825153.00
956.00	778655.00
957.00	736150.00
958.00	693247.00
959.00	654168.00
960.00	617394.00
961.00	582424.00
962.00	549658.00
963.00	518797.00
964.00	491872.00
965.00	465273.00
966.00	442387.00
967.00	421925.00
968.00	402730.00
969.00	383820.00
970.00	368118.00
971.00	354411.00
972.00	342222.00
973.00	332306.00
974.00	322208.00
975.00	313010.00
976.00	306635.00
977.00	302031.00
978.00	297286.00
979.00	294184.00
980.00	294074.00
981.00	295582.00
982.00	299081.00
983.00	305887.00
984.00	315083.00
985.00	326588.00
986.00	341294.00
987.00	359050.00
988.00	380706.00
989.00	403303.00
990.00	428462.00
991.00	453151.00
992.00	476303.00
993.00	499965.00
994.00	520317.00
995.00	534778.00
996.00	544237.00
997.00	547424.00
998.00	544488.00
999.00	534216.00
1000.00	514743.00
1001.00	493533.00
1002.00	466605.00
1003.00	436504.00
1004.00	404265.00
1005.00	374332.00
1006.00	346043.00
1007.00	319102.00
1008.00	294882.00
1009.00	277336.00
1010.00	262136.00
1011.00	249395.00
1012.00	241328.00
1013.00	234905.00
1014.00	229541.00
1015.00	226974.00
1016.00	225600.00
1017.00	224349.00
1018.00	224329.00
1019.00	224937.00
1020.00	225276.00
1021.00	227063.00
1022.00	228423.00
1023.00	229198.00
1024.00	232264.00
