Date:	2023-08-22		
Time:	14:47		
Sample name:	MST1A		
Position:	840.000049	mm	
Sample surface:	5.174405	cm	
Tube anode:	Mo		
Tube voltage:	30	kV	
Tube current:	30	mA	
Comments	not in position		
Gain	0.060000		
peaking_time	1.500000	m-sec	
trigger_threshold	653.076172	V	
mca_bin_width	17.500000	no:	
number_mca_channels	1024.000000	no:	
gap_time	0.080000	m-sec	
trigger_peaking_time	0.060000	m-sec	
livetime	6.997254	seconds	
runtime	10.007785	seconds	
input_count_rate	41559.947225	cps	
output_count_rate	29058.079331	cps	
triggers	0	seconds	
events_in_run	0	seconds	
channel	content		
 1.00	 0.00
 2.00	 0.00
 3.00	 0.00
 4.00	 0.00
 5.00	 0.00
 6.00	 0.00
 7.00	 0.00
 8.00	 0.00
 9.00	 0.00
10.00	 0.00
11.00	 0.00
12.00	 0.00
13.00	 0.00
14.00	 0.00
15.00	 0.00
16.00	 0.00
17.00	 0.00
18.00	 0.00
19.00	 0.00
20.00	 0.00
21.00	 0.00
22.00	 0.00
23.00	 0.00
24.00	 0.00
25.00	 0.00
26.00	 0.00
27.00	 0.00
28.00	 0.00
29.00	 0.00
30.00	 0.00
31.00	 2.00
32.00	 7.00
33.00	 7.00
34.00	12.00
35.00	11.00
36.00	25.00
37.00	37.00
38.00	60.00
39.00	99.00
40.00	131.00
41.00	189.00
42.00	225.00
43.00	389.00
44.00	508.00
45.00	682.00
46.00	852.00
47.00	1240.00
48.00	1552.00
49.00	2045.00
50.00	2569.00
51.00	3170.00
52.00	3842.00
53.00	4616.00
54.00	5600.00
55.00	6630.00
56.00	7592.00
57.00	8903.00
58.00	9897.00
59.00	11033.00
60.00	12211.00
61.00	13473.00
62.00	14541.00
63.00	15294.00
64.00	16313.00
65.00	17079.00
66.00	18100.00
67.00	18737.00
68.00	18950.00
69.00	19231.00
70.00	19589.00
71.00	19523.00
72.00	19911.00
73.00	19727.00
74.00	19522.00
75.00	19628.00
76.00	19060.00
77.00	19064.00
78.00	18855.00
79.00	18464.00
80.00	18628.00
81.00	18638.00
82.00	18837.00
83.00	19203.00
84.00	19156.00
85.00	19209.00
86.00	19131.00
87.00	18829.00
88.00	18220.00
89.00	17625.00
90.00	16800.00
91.00	15926.00
92.00	15626.00
93.00	15110.00
94.00	14736.00
95.00	14512.00
96.00	14095.00
97.00	14299.00
98.00	13828.00
99.00	14007.00
100.00	13917.00
101.00	13595.00
102.00	13576.00
103.00	13532.00
104.00	13556.00
105.00	13560.00
106.00	13409.00
107.00	13290.00
108.00	13150.00
109.00	13144.00
110.00	12831.00
111.00	12554.00
112.00	12305.00
113.00	12269.00
114.00	11939.00
115.00	11785.00
116.00	11446.00
117.00	11295.00
118.00	11261.00
119.00	10788.00
120.00	10698.00
121.00	10427.00
122.00	10306.00
123.00	10172.00
124.00	10078.00
125.00	9853.00
126.00	9848.00
127.00	9969.00
128.00	9937.00
129.00	9980.00
130.00	10339.00
131.00	10373.00
132.00	10530.00
133.00	10392.00
134.00	10353.00
135.00	9946.00
136.00	9648.00
137.00	8844.00
138.00	8538.00
139.00	8065.00
140.00	8061.00
141.00	7852.00
142.00	7805.00
143.00	7479.00
144.00	7407.00
145.00	7389.00
146.00	7293.00
147.00	7448.00
148.00	7332.00
149.00	7399.00
150.00	7449.00
151.00	7529.00
152.00	7441.00
153.00	7127.00
154.00	7051.00
155.00	6673.00
156.00	6592.00
157.00	6268.00
158.00	6360.00
159.00	6334.00
160.00	6259.00
161.00	6556.00
162.00	6896.00
163.00	7450.00
164.00	8652.00
165.00	9835.00
166.00	11564.00
167.00	13517.00
168.00	15063.00
169.00	16691.00
170.00	17344.00
171.00	17173.00
172.00	15917.00
173.00	14125.00
174.00	12278.00
175.00	10194.00
176.00	8682.00
177.00	7468.00
178.00	6679.00
179.00	6388.00
180.00	6121.00
181.00	6229.00
182.00	6281.00
183.00	6309.00
184.00	6564.00
185.00	6466.00
186.00	6137.00
187.00	6034.00
188.00	5782.00
189.00	5758.00
190.00	5533.00
191.00	5396.00
192.00	5227.00
193.00	5131.00
194.00	5085.00
195.00	4953.00
196.00	5143.00
197.00	4892.00
198.00	4795.00
199.00	4794.00
200.00	4837.00
201.00	4941.00
202.00	5107.00
203.00	5407.00
204.00	5977.00
205.00	6825.00
206.00	7956.00
207.00	9619.00
208.00	11815.00
209.00	13764.00
210.00	15557.00
211.00	17340.00
212.00	18136.00
213.00	17601.00
214.00	16583.00
215.00	14547.00
216.00	12389.00
217.00	10227.00
218.00	8487.00
219.00	7034.00
220.00	6089.00
221.00	5503.00
222.00	5244.00
223.00	5333.00
224.00	5311.00
225.00	5519.00
226.00	5618.00
227.00	6247.00
228.00	6323.00
229.00	6515.00
230.00	6795.00
231.00	6738.00
232.00	6646.00
233.00	6558.00
234.00	6245.00
235.00	5907.00
236.00	5551.00
237.00	5394.00
238.00	5153.00
239.00	5016.00
240.00	5052.00
241.00	5065.00
242.00	4936.00
243.00	4944.00
244.00	4984.00
245.00	5063.00
246.00	5131.00
247.00	5087.00
248.00	5332.00
249.00	5362.00
250.00	5468.00
251.00	5612.00
252.00	5915.00
253.00	6153.00
254.00	6527.00
255.00	7039.00
256.00	7356.00
257.00	7788.00
258.00	7799.00
259.00	7884.00
260.00	8168.00
261.00	8057.00
262.00	7754.00
263.00	7442.00
264.00	7044.00
265.00	7000.00
266.00	6858.00
267.00	6739.00
268.00	6929.00
269.00	6871.00
270.00	6860.00
271.00	6981.00
272.00	6982.00
273.00	7304.00
274.00	7290.00
275.00	7487.00
276.00	7652.00
277.00	7730.00
278.00	7982.00
279.00	8140.00
280.00	8280.00
281.00	8435.00
282.00	8733.00
283.00	8841.00
284.00	8914.00
285.00	9244.00
286.00	9085.00
287.00	9062.00
288.00	9430.00
289.00	9280.00
290.00	9561.00
291.00	9756.00
292.00	9867.00
293.00	9984.00
294.00	10239.00
295.00	10390.00
296.00	10579.00
297.00	10538.00
298.00	10871.00
299.00	11031.00
300.00	11312.00
301.00	11557.00
302.00	11821.00
303.00	12019.00
304.00	12279.00
305.00	12386.00
306.00	12715.00
307.00	13291.00
308.00	13372.00
309.00	13944.00
310.00	14202.00
311.00	14250.00
312.00	14533.00
313.00	14463.00
314.00	14534.00
315.00	14381.00
316.00	14644.00
317.00	14733.00
318.00	15042.00
319.00	15269.00
320.00	15456.00
321.00	15489.00
322.00	15753.00
323.00	16089.00
324.00	16365.00
325.00	16623.00
326.00	16828.00
327.00	17151.00
328.00	17554.00
329.00	17655.00
330.00	17811.00
331.00	18087.00
332.00	18754.00
333.00	18894.00
334.00	19059.00
335.00	19409.00
336.00	19771.00
337.00	20277.00
338.00	20250.00
339.00	20533.00
340.00	20438.00
341.00	20662.00
342.00	21341.00
343.00	21218.00
344.00	21578.00
345.00	22019.00
346.00	22305.00
347.00	22274.00
348.00	22527.00
349.00	22703.00
350.00	23338.00
351.00	23666.00
352.00	24072.00
353.00	24321.00
354.00	24513.00
355.00	25493.00
356.00	26277.00
357.00	26683.00
358.00	27792.00
359.00	28743.00
360.00	30585.00
361.00	33052.00
362.00	34979.00
363.00	37256.00
364.00	39238.00
365.00	41502.00
366.00	42978.00
367.00	43989.00
368.00	43776.00
369.00	42770.00
370.00	41988.00
371.00	39499.00
372.00	37915.00
373.00	37025.00
374.00	35578.00
375.00	34940.00
376.00	34429.00
377.00	33869.00
378.00	34425.00
379.00	34631.00
380.00	34903.00
381.00	35319.00
382.00	35918.00
383.00	36475.00
384.00	36989.00
385.00	37283.00
386.00	38223.00
387.00	38623.00
388.00	38785.00
389.00	39700.00
390.00	40029.00
391.00	40671.00
392.00	41509.00
393.00	41523.00
394.00	42102.00
395.00	42855.00
396.00	43408.00
397.00	44317.00
398.00	44829.00
399.00	46456.00
400.00	46607.00
401.00	47288.00
402.00	48632.00
403.00	49521.00
404.00	50069.00
405.00	50258.00
406.00	50642.00
407.00	50872.00
408.00	51641.00
409.00	52062.00
410.00	51892.00
411.00	52967.00
412.00	53125.00
413.00	53766.00
414.00	54310.00
415.00	54933.00
416.00	56145.00
417.00	56829.00
418.00	57979.00
419.00	59206.00
420.00	62090.00
421.00	64178.00
422.00	66772.00
423.00	70317.00
424.00	73449.00
425.00	76475.00
426.00	79117.00
427.00	82282.00
428.00	82628.00
429.00	83521.00
430.00	83290.00
431.00	81755.00
432.00	79582.00
433.00	77108.00
434.00	74937.00
435.00	73154.00
436.00	72295.00
437.00	71402.00
438.00	70705.00
439.00	71090.00
440.00	71191.00
441.00	71659.00
442.00	72888.00
443.00	73371.00
444.00	74480.00
445.00	75196.00
446.00	76061.00
447.00	76545.00
448.00	77662.00
449.00	78291.00
450.00	79102.00
451.00	80210.00
452.00	81073.00
453.00	82595.00
454.00	83915.00
455.00	85640.00
456.00	87812.00
457.00	89398.00
458.00	90663.00
459.00	93666.00
460.00	95800.00
461.00	96791.00
462.00	98359.00
463.00	100752.00
464.00	102185.00
465.00	103048.00
466.00	104171.00
467.00	104965.00
468.00	106742.00
469.00	107179.00
470.00	107759.00
471.00	108278.00
472.00	108779.00
473.00	110096.00
474.00	110189.00
475.00	111010.00
476.00	111420.00
477.00	112041.00
478.00	113432.00
479.00	113236.00
480.00	113839.00
481.00	113172.00
482.00	113398.00
483.00	112645.00
484.00	111329.00
485.00	110883.00
486.00	110097.00
487.00	108862.00
488.00	108574.00
489.00	108880.00
490.00	108536.00
491.00	109079.00
492.00	109344.00
493.00	110352.00
494.00	110632.00
495.00	111596.00
496.00	112149.00
497.00	113219.00
498.00	113898.00
499.00	114850.00
500.00	115530.00
501.00	115875.00
502.00	116897.00
503.00	118502.00
504.00	118717.00
505.00	120047.00
506.00	121069.00
507.00	121920.00
508.00	123092.00
509.00	124274.00
510.00	125381.00
511.00	125645.00
512.00	127167.00
513.00	127332.00
514.00	128697.00
515.00	129840.00
516.00	130921.00
517.00	131563.00
518.00	132597.00
519.00	133822.00
520.00	135047.00
521.00	136402.00
522.00	138262.00
523.00	138780.00
524.00	140833.00
525.00	142952.00
526.00	144260.00
527.00	145637.00
528.00	147245.00
529.00	149767.00
530.00	151132.00
531.00	153137.00
532.00	154967.00
533.00	156208.00
534.00	157228.00
535.00	159220.00
536.00	160819.00
537.00	162088.00
538.00	162930.00
539.00	163774.00
540.00	164927.00
541.00	165806.00
542.00	167429.00
543.00	168186.00
544.00	169147.00
545.00	169965.00
546.00	171509.00
547.00	172912.00
548.00	174361.00
549.00	175556.00
550.00	177287.00
551.00	179033.00
552.00	179552.00
553.00	180060.00
554.00	181741.00
555.00	181183.00
556.00	182148.00
557.00	181706.00
558.00	182192.00
559.00	181715.00
560.00	182892.00
561.00	182009.00
562.00	182589.00
563.00	181913.00
564.00	182887.00
565.00	184082.00
566.00	184959.00
567.00	185250.00
568.00	186292.00
569.00	187661.00
570.00	189080.00
571.00	189105.00
572.00	189731.00
573.00	190500.00
574.00	191164.00
575.00	191692.00
576.00	192546.00
577.00	193987.00
578.00	193419.00
579.00	195609.00
580.00	195456.00
581.00	196641.00
582.00	196805.00
583.00	198406.00
584.00	198911.00
585.00	199820.00
586.00	200550.00
587.00	201739.00
588.00	202535.00
589.00	202964.00
590.00	205032.00
591.00	205751.00
592.00	206845.00
593.00	208838.00
594.00	208740.00
595.00	209526.00
596.00	210229.00
597.00	212120.00
598.00	212995.00
599.00	214168.00
600.00	215445.00
601.00	216308.00
602.00	217695.00
603.00	217924.00
604.00	218906.00
605.00	220843.00
606.00	221677.00
607.00	222232.00
608.00	223842.00
609.00	224856.00
610.00	226025.00
611.00	227498.00
612.00	228306.00
613.00	230095.00
614.00	230135.00
615.00	232896.00
616.00	233138.00
617.00	233654.00
618.00	235547.00
619.00	237565.00
620.00	238677.00
621.00	238945.00
622.00	240290.00
623.00	241188.00
624.00	242428.00
625.00	243368.00
626.00	244414.00
627.00	245017.00
628.00	246788.00
629.00	247077.00
630.00	247239.00
631.00	249646.00
632.00	249993.00
633.00	250256.00
634.00	252923.00
635.00	253272.00
636.00	253940.00
637.00	255701.00
638.00	256629.00
639.00	257900.00
640.00	259430.00
641.00	260761.00
642.00	261978.00
643.00	263454.00
644.00	263848.00
645.00	265006.00
646.00	266851.00
647.00	267747.00
648.00	268470.00
649.00	268477.00
650.00	270144.00
651.00	270650.00
652.00	272405.00
653.00	272215.00
654.00	273531.00
655.00	275211.00
656.00	275664.00
657.00	276752.00
658.00	277917.00
659.00	279013.00
660.00	280830.00
661.00	283126.00
662.00	283562.00
663.00	283809.00
664.00	285893.00
665.00	286972.00
666.00	289919.00
667.00	293888.00
668.00	298120.00
669.00	304300.00
670.00	313167.00
671.00	324125.00
672.00	337096.00
673.00	355424.00
674.00	375330.00
675.00	398518.00
676.00	425047.00
677.00	451013.00
678.00	474955.00
679.00	496788.00
680.00	511358.00
681.00	519191.00
682.00	521113.00
683.00	512625.00
684.00	498002.00
685.00	478906.00
686.00	454154.00
687.00	429662.00
688.00	406535.00
689.00	383973.00
690.00	365179.00
691.00	349804.00
692.00	336825.00
693.00	328617.00
694.00	323649.00
695.00	318773.00
696.00	316686.00
697.00	316079.00
698.00	315826.00
699.00	316245.00
700.00	317195.00
701.00	316756.00
702.00	318441.00
703.00	318616.00
704.00	319596.00
705.00	321067.00
706.00	322403.00
707.00	322746.00
708.00	323124.00
709.00	323407.00
710.00	324734.00
711.00	325674.00
712.00	326289.00
713.00	326580.00
714.00	328719.00
715.00	328816.00
716.00	330652.00
717.00	331796.00
718.00	331148.00
719.00	333026.00
720.00	333200.00
721.00	333470.00
722.00	334674.00
723.00	335724.00
724.00	337682.00
725.00	336635.00
726.00	337746.00
727.00	338130.00
728.00	338746.00
729.00	341034.00
730.00	341132.00
731.00	341202.00
732.00	342234.00
733.00	343775.00
734.00	343815.00
735.00	344874.00
736.00	344667.00
737.00	346249.00
738.00	346409.00
739.00	348410.00
740.00	348823.00
741.00	349372.00
742.00	350516.00
743.00	351025.00
744.00	351566.00
745.00	352923.00
746.00	354011.00
747.00	355240.00
748.00	357513.00
749.00	358771.00
750.00	361486.00
751.00	364749.00
752.00	367109.00
753.00	372389.00
754.00	376288.00
755.00	381768.00
756.00	387579.00
757.00	390904.00
758.00	395246.00
759.00	398483.00
760.00	401003.00
761.00	400560.00
762.00	400519.00
763.00	397188.00
764.00	394989.00
765.00	392165.00
766.00	386491.00
767.00	383706.00
768.00	380686.00
769.00	377247.00
770.00	375214.00
771.00	371929.00
772.00	372178.00
773.00	370349.00
774.00	369894.00
775.00	369004.00
776.00	368708.00
777.00	367937.00
778.00	368007.00
779.00	367698.00
780.00	370361.00
781.00	370319.00
782.00	369861.00
783.00	369295.00
784.00	369898.00
785.00	369262.00
786.00	370706.00
787.00	371720.00
788.00	371897.00
789.00	372376.00
790.00	373182.00
791.00	374064.00
792.00	373989.00
793.00	374193.00
794.00	375610.00
795.00	375249.00
796.00	375793.00
797.00	378046.00
798.00	378384.00
799.00	378397.00
800.00	381273.00
801.00	383327.00
802.00	383586.00
803.00	386272.00
804.00	386813.00
805.00	388853.00
806.00	389661.00
807.00	391060.00
808.00	390818.00
809.00	393072.00
810.00	392981.00
811.00	391581.00
812.00	391724.00
813.00	391527.00
814.00	390439.00
815.00	389701.00
816.00	390133.00
817.00	390360.00
818.00	388106.00
819.00	387340.00
820.00	388564.00
821.00	386338.00
822.00	385981.00
823.00	387503.00
824.00	386229.00
825.00	388807.00
826.00	387655.00
827.00	388226.00
828.00	389411.00
829.00	388597.00
830.00	389383.00
831.00	389723.00
832.00	390859.00
833.00	390421.00
834.00	391529.00
835.00	392714.00
836.00	391932.00
837.00	392174.00
838.00	392335.00
839.00	393982.00
840.00	394248.00
841.00	395465.00
842.00	394815.00
843.00	395989.00
844.00	396594.00
845.00	396435.00
846.00	397598.00
847.00	397820.00
848.00	398566.00
849.00	398534.00
850.00	399932.00
851.00	399944.00
852.00	400591.00
853.00	400145.00
854.00	401814.00
855.00	401714.00
856.00	402683.00
857.00	402777.00
858.00	403871.00
859.00	403412.00
860.00	405878.00
861.00	406287.00
862.00	406452.00
863.00	407570.00
864.00	407073.00
865.00	409692.00
866.00	410382.00
867.00	411225.00
868.00	411255.00
869.00	413158.00
870.00	413073.00
871.00	414485.00
872.00	416390.00
873.00	417807.00
874.00	417103.00
875.00	418164.00
876.00	419928.00
877.00	422402.00
878.00	423949.00
879.00	425610.00
880.00	426699.00
881.00	429125.00
882.00	430769.00
883.00	432892.00
884.00	433671.00
885.00	436781.00
886.00	438747.00
887.00	441121.00
888.00	443767.00
889.00	446764.00
890.00	449676.00
891.00	454220.00
892.00	456346.00
893.00	460405.00
894.00	464021.00
895.00	468119.00
896.00	472180.00
897.00	477557.00
898.00	482016.00
899.00	487316.00
900.00	493400.00
901.00	500681.00
902.00	507618.00
903.00	514401.00
904.00	522376.00
905.00	530536.00
906.00	540542.00
907.00	550349.00
908.00	561629.00
909.00	573584.00
910.00	585976.00
911.00	601149.00
912.00	617562.00
913.00	634894.00
914.00	658094.00
915.00	679567.00
916.00	705527.00
917.00	734090.00
918.00	766370.00
919.00	801722.00
920.00	841978.00
921.00	885339.00
922.00	930057.00
923.00	977989.00
924.00	1030685.00
925.00	1089061.00
926.00	1145725.00
927.00	1208835.00
928.00	1272401.00
929.00	1333876.00
930.00	1398316.00
931.00	1461337.00
932.00	1521113.00
933.00	1578916.00
934.00	1629885.00
935.00	1677310.00
936.00	1720183.00
937.00	1752579.00
938.00	1780589.00
939.00	1796465.00
940.00	1809486.00
941.00	1810106.00
942.00	1801047.00
943.00	1784368.00
944.00	1760683.00
945.00	1727179.00
946.00	1688933.00
947.00	1639569.00
948.00	1588807.00
949.00	1530788.00
950.00	1474977.00
951.00	1409439.00
952.00	1346636.00
953.00	1279275.00
954.00	1213002.00
955.00	1150561.00
956.00	1085301.00
957.00	1025795.00
958.00	968462.00
959.00	912978.00
960.00	860988.00
961.00	811280.00
962.00	768072.00
963.00	724485.00
964.00	685929.00
965.00	650286.00
966.00	617609.00
967.00	589787.00
968.00	561582.00
969.00	535705.00
970.00	517249.00
971.00	495014.00
972.00	478007.00
973.00	463294.00
974.00	450129.00
975.00	438765.00
976.00	429393.00
977.00	422261.00
978.00	415687.00
979.00	412070.00
980.00	412253.00
981.00	412928.00
982.00	417249.00
983.00	424884.00
984.00	437979.00
985.00	455343.00
986.00	474637.00
987.00	499333.00
988.00	527895.00
989.00	559589.00
990.00	594232.00
991.00	628752.00
992.00	661745.00
993.00	694972.00
994.00	720024.00
995.00	740480.00
996.00	753382.00
997.00	759593.00
998.00	754386.00
999.00	739056.00
1000.00	718099.00
1001.00	684879.00
1002.00	646866.00
1003.00	607216.00
1004.00	566558.00
1005.00	522461.00
1006.00	482545.00
1007.00	446216.00
1008.00	414996.00
1009.00	387679.00
1010.00	366560.00
1011.00	350448.00
1012.00	335840.00
1013.00	327274.00
1014.00	320893.00
1015.00	316362.00
1016.00	314659.00
1017.00	313922.00
1018.00	313107.00
1019.00	313469.00
1020.00	314516.00
1021.00	316999.00
1022.00	318285.00
1023.00	320004.00
1024.00	323600.00
