Date:	2023-08-23		
Time:	22:54		
Sample name:	MI1D_E_F		
Position:	1618.000049	mm	
Sample surface:	4.285809	cm	
Tube anode:	Mo		
Tube voltage:	30	kV	
Tube current:	30	mA	
Comments	not in position		
Gain	0.060000		
peaking_time	1.500000	m-sec	
trigger_threshold	653.076172	V	
mca_bin_width	17.500000	no:	
number_mca_channels	1024.000000	no:	
gap_time	0.080000	m-sec	
trigger_peaking_time	0.060000	m-sec	
livetime	7.024235	seconds	
runtime	10.007066	seconds	
input_count_rate	45861.645490	cps	
output_count_rate	32192.253211	cps	
triggers	0	seconds	
events_in_run	0	seconds	
channel	content		
 1.00	 0.00
 2.00	 0.00
 3.00	 0.00
 4.00	 0.00
 5.00	 0.00
 6.00	 0.00
 7.00	 0.00
 8.00	 0.00
 9.00	 0.00
10.00	 0.00
11.00	 0.00
12.00	 0.00
13.00	 0.00
14.00	 0.00
15.00	 0.00
16.00	 0.00
17.00	 0.00
18.00	 0.00
19.00	 0.00
20.00	 0.00
21.00	 0.00
22.00	 0.00
23.00	 0.00
24.00	 0.00
25.00	 0.00
26.00	 0.00
27.00	 0.00
28.00	 0.00
29.00	 0.00
30.00	 0.00
31.00	 2.00
32.00	 3.00
33.00	 3.00
34.00	 6.00
35.00	14.00
36.00	19.00
37.00	38.00
38.00	38.00
39.00	49.00
40.00	80.00
41.00	114.00
42.00	182.00
43.00	240.00
44.00	369.00
45.00	465.00
46.00	586.00
47.00	817.00
48.00	1107.00
49.00	1352.00
50.00	1828.00
51.00	2155.00
52.00	2690.00
53.00	3331.00
54.00	3857.00
55.00	4625.00
56.00	5346.00
57.00	6103.00
58.00	7041.00
59.00	7787.00
60.00	8570.00
61.00	9284.00
62.00	10318.00
63.00	10772.00
64.00	11590.00
65.00	11943.00
66.00	12469.00
67.00	12945.00
68.00	13241.00
69.00	13431.00
70.00	13591.00
71.00	13800.00
72.00	13908.00
73.00	13756.00
74.00	13648.00
75.00	13550.00
76.00	13347.00
77.00	13298.00
78.00	13362.00
79.00	13122.00
80.00	13067.00
81.00	13005.00
82.00	13018.00
83.00	13156.00
84.00	13564.00
85.00	13391.00
86.00	13056.00
87.00	13202.00
88.00	12701.00
89.00	12014.00
90.00	11581.00
91.00	11112.00
92.00	10837.00
93.00	10670.00
94.00	10453.00
95.00	10084.00
96.00	10147.00
97.00	9999.00
98.00	10081.00
99.00	9736.00
100.00	9927.00
101.00	9779.00
102.00	9614.00
103.00	9637.00
104.00	9630.00
105.00	9635.00
106.00	9228.00
107.00	9397.00
108.00	9338.00
109.00	9122.00
110.00	9193.00
111.00	8824.00
112.00	8867.00
113.00	8631.00
114.00	8481.00
115.00	8312.00
116.00	8047.00
117.00	8160.00
118.00	7798.00
119.00	7772.00
120.00	7396.00
121.00	7283.00
122.00	7298.00
123.00	7115.00
124.00	6890.00
125.00	6855.00
126.00	6822.00
127.00	6645.00
128.00	6762.00
129.00	6831.00
130.00	6723.00
131.00	6620.00
132.00	6750.00
133.00	6495.00
134.00	6325.00
135.00	6374.00
136.00	6119.00
137.00	5860.00
138.00	5812.00
139.00	5596.00
140.00	5504.00
141.00	5440.00
142.00	5307.00
143.00	5303.00
144.00	5213.00
145.00	5107.00
146.00	5020.00
147.00	5101.00
148.00	4922.00
149.00	4880.00
150.00	4929.00
151.00	4849.00
152.00	4869.00
153.00	4730.00
154.00	4749.00
155.00	4589.00
156.00	4744.00
157.00	4691.00
158.00	4664.00
159.00	4821.00
160.00	4591.00
161.00	4839.00
162.00	5070.00
163.00	5424.00
164.00	6037.00
165.00	7030.00
166.00	8088.00
167.00	9630.00
168.00	11071.00
169.00	12195.00
170.00	12774.00
171.00	12736.00
172.00	11608.00
173.00	10441.00
174.00	8936.00
175.00	7359.00
176.00	6066.00
177.00	5183.00
178.00	4765.00
179.00	4576.00
180.00	4502.00
181.00	4497.00
182.00	4511.00
183.00	4637.00
184.00	4695.00
185.00	4637.00
186.00	4466.00
187.00	4441.00
188.00	4217.00
189.00	4181.00
190.00	3981.00
191.00	4025.00
192.00	3854.00
193.00	3856.00
194.00	3730.00
195.00	3512.00
196.00	3495.00
197.00	3461.00
198.00	3467.00
199.00	3421.00
200.00	3409.00
201.00	3556.00
202.00	3733.00
203.00	3861.00
204.00	4234.00
205.00	4873.00
206.00	5832.00
207.00	6818.00
208.00	8230.00
209.00	9694.00
210.00	11364.00
211.00	12258.00
212.00	12983.00
213.00	12624.00
214.00	11731.00
215.00	10249.00
216.00	8879.00
217.00	7255.00
218.00	6053.00
219.00	4933.00
220.00	4366.00
221.00	4073.00
222.00	3862.00
223.00	3699.00
224.00	3867.00
225.00	4109.00
226.00	4181.00
227.00	4459.00
228.00	4728.00
229.00	4955.00
230.00	4919.00
231.00	5076.00
232.00	4857.00
233.00	4738.00
234.00	4569.00
235.00	4254.00
236.00	4043.00
237.00	3767.00
238.00	3692.00
239.00	3664.00
240.00	3584.00
241.00	3641.00
242.00	3682.00
243.00	3631.00
244.00	3712.00
245.00	3985.00
246.00	4114.00
247.00	4533.00
248.00	5209.00
249.00	6310.00
250.00	7886.00
251.00	10486.00
252.00	14200.00
253.00	18984.00
254.00	25784.00
255.00	32868.00
256.00	39905.00
257.00	45508.00
258.00	49868.00
259.00	50796.00
260.00	49254.00
261.00	44530.00
262.00	38163.00
263.00	30917.00
264.00	24407.00
265.00	18766.00
266.00	14521.00
267.00	11449.00
268.00	9449.00
269.00	8311.00
270.00	7529.00
271.00	7495.00
272.00	7341.00
273.00	7718.00
274.00	8399.00
275.00	9047.00
276.00	9933.00
277.00	11194.00
278.00	12448.00
279.00	13694.00
280.00	14791.00
281.00	15647.00
282.00	16535.00
283.00	16556.00
284.00	16204.00
285.00	15715.00
286.00	14096.00
287.00	12918.00
288.00	11533.00
289.00	10274.00
290.00	9316.00
291.00	8513.00
292.00	8057.00
293.00	8020.00
294.00	8263.00
295.00	8357.00
296.00	8399.00
297.00	8444.00
298.00	8578.00
299.00	8841.00
300.00	8903.00
301.00	8898.00
302.00	9050.00
303.00	9257.00
304.00	9354.00
305.00	9922.00
306.00	9980.00
307.00	10074.00
308.00	10493.00
309.00	10811.00
310.00	10962.00
311.00	10996.00
312.00	11214.00
313.00	11125.00
314.00	11099.00
315.00	11088.00
316.00	11018.00
317.00	11446.00
318.00	11273.00
319.00	11292.00
320.00	11488.00
321.00	11269.00
322.00	11666.00
323.00	11576.00
324.00	11860.00
325.00	11856.00
326.00	12145.00
327.00	12157.00
328.00	12733.00
329.00	12991.00
330.00	13380.00
331.00	13478.00
332.00	13749.00
333.00	14180.00
334.00	14676.00
335.00	15148.00
336.00	15571.00
337.00	15772.00
338.00	15989.00
339.00	16207.00
340.00	16158.00
341.00	16241.00
342.00	16256.00
343.00	16310.00
344.00	16095.00
345.00	16303.00
346.00	16550.00
347.00	16453.00
348.00	16879.00
349.00	17093.00
350.00	17874.00
351.00	18569.00
352.00	19811.00
353.00	21558.00
354.00	24678.00
355.00	30052.00
356.00	38879.00
357.00	53237.00
358.00	76119.00
359.00	109041.00
360.00	154670.00
361.00	214118.00
362.00	284785.00
363.00	360421.00
364.00	438451.00
365.00	505021.00
366.00	547455.00
367.00	563741.00
368.00	547624.00
369.00	504054.00
370.00	437306.00
371.00	359936.00
372.00	280477.00
373.00	208861.00
374.00	149718.00
375.00	103648.00
376.00	71859.00
377.00	51848.00
378.00	39889.00
379.00	33128.00
380.00	29300.00
381.00	27468.00
382.00	27265.00
383.00	27015.00
384.00	27115.00
385.00	27278.00
386.00	28191.00
387.00	28464.00
388.00	29020.00
389.00	29724.00
390.00	30989.00
391.00	31411.00
392.00	32822.00
393.00	34689.00
394.00	37521.00
395.00	41337.00
396.00	46320.00
397.00	53807.00
398.00	62400.00
399.00	73239.00
400.00	86014.00
401.00	97980.00
402.00	109111.00
403.00	117204.00
404.00	121908.00
405.00	121888.00
406.00	116470.00
407.00	108367.00
408.00	97321.00
409.00	85381.00
410.00	73081.00
411.00	62954.00
412.00	54356.00
413.00	47928.00
414.00	44260.00
415.00	41565.00
416.00	39735.00
417.00	39761.00
418.00	39952.00
419.00	40799.00
420.00	42135.00
421.00	43664.00
422.00	45720.00
423.00	47424.00
424.00	49760.00
425.00	52605.00
426.00	54554.00
427.00	56234.00
428.00	56991.00
429.00	57465.00
430.00	56660.00
431.00	55586.00
432.00	54232.00
433.00	52419.00
434.00	50961.00
435.00	49169.00
436.00	48833.00
437.00	48133.00
438.00	48182.00
439.00	47809.00
440.00	48049.00
441.00	48072.00
442.00	49265.00
443.00	49458.00
444.00	50115.00
445.00	50485.00
446.00	51347.00
447.00	51911.00
448.00	52643.00
449.00	52866.00
450.00	53457.00
451.00	53731.00
452.00	55324.00
453.00	55840.00
454.00	57262.00
455.00	58718.00
456.00	60392.00
457.00	61231.00
458.00	62770.00
459.00	63994.00
460.00	65936.00
461.00	66977.00
462.00	68910.00
463.00	69197.00
464.00	70162.00
465.00	70491.00
466.00	71256.00
467.00	71879.00
468.00	72414.00
469.00	72487.00
470.00	73034.00
471.00	73886.00
472.00	73917.00
473.00	74583.00
474.00	74927.00
475.00	75471.00
476.00	76046.00
477.00	76060.00
478.00	76910.00
479.00	76757.00
480.00	78140.00
481.00	77081.00
482.00	77277.00
483.00	77268.00
484.00	76119.00
485.00	75700.00
486.00	74754.00
487.00	74850.00
488.00	74181.00
489.00	74709.00
490.00	74674.00
491.00	75441.00
492.00	75609.00
493.00	76558.00
494.00	76531.00
495.00	77733.00
496.00	77262.00
497.00	77975.00
498.00	78202.00
499.00	78804.00
500.00	79125.00
501.00	79791.00
502.00	79985.00
503.00	80523.00
504.00	81557.00
505.00	81561.00
506.00	82277.00
507.00	83037.00
508.00	83387.00
509.00	84492.00
510.00	84816.00
511.00	85445.00
512.00	86429.00
513.00	86832.00
514.00	87364.00
515.00	88233.00
516.00	88462.00
517.00	90061.00
518.00	90067.00
519.00	91428.00
520.00	91626.00
521.00	92658.00
522.00	94324.00
523.00	95262.00
524.00	96223.00
525.00	97001.00
526.00	99090.00
527.00	100015.00
528.00	101574.00
529.00	101966.00
530.00	103474.00
531.00	104802.00
532.00	106062.00
533.00	107353.00
534.00	107633.00
535.00	108488.00
536.00	110002.00
537.00	110414.00
538.00	111294.00
539.00	111394.00
540.00	112516.00
541.00	113538.00
542.00	114373.00
543.00	114578.00
544.00	115496.00
545.00	116657.00
546.00	116982.00
547.00	117485.00
548.00	119452.00
549.00	119890.00
550.00	120855.00
551.00	122007.00
552.00	122670.00
553.00	123540.00
554.00	123701.00
555.00	124763.00
556.00	124662.00
557.00	124271.00
558.00	123982.00
559.00	123925.00
560.00	124153.00
561.00	124072.00
562.00	124733.00
563.00	125208.00
564.00	124767.00
565.00	125257.00
566.00	125705.00
567.00	126721.00
568.00	127909.00
569.00	128418.00
570.00	128377.00
571.00	128967.00
572.00	129689.00
573.00	129836.00
574.00	130446.00
575.00	130305.00
576.00	130754.00
577.00	131836.00
578.00	132714.00
579.00	132329.00
580.00	133372.00
581.00	134128.00
582.00	134665.00
583.00	134971.00
584.00	135497.00
585.00	136453.00
586.00	136746.00
587.00	137794.00
588.00	138280.00
589.00	138842.00
590.00	140516.00
591.00	140980.00
592.00	140704.00
593.00	142281.00
594.00	142709.00
595.00	143567.00
596.00	144454.00
597.00	145183.00
598.00	145110.00
599.00	146219.00
600.00	147243.00
601.00	147422.00
602.00	148472.00
603.00	149690.00
604.00	150292.00
605.00	151264.00
606.00	151596.00
607.00	152654.00
608.00	153813.00
609.00	153746.00
610.00	155273.00
611.00	154557.00
612.00	156511.00
613.00	157365.00
614.00	158260.00
615.00	158588.00
616.00	159359.00
617.00	160971.00
618.00	162081.00
619.00	162215.00
620.00	163552.00
621.00	163964.00
622.00	164363.00
623.00	166088.00
624.00	166026.00
625.00	167102.00
626.00	167343.00
627.00	167859.00
628.00	168945.00
629.00	169448.00
630.00	170546.00
631.00	170611.00
632.00	171816.00
633.00	172279.00
634.00	172973.00
635.00	174441.00
636.00	174044.00
637.00	175014.00
638.00	176184.00
639.00	176558.00
640.00	178055.00
641.00	178205.00
642.00	178982.00
643.00	179602.00
644.00	179927.00
645.00	182028.00
646.00	182624.00
647.00	182674.00
648.00	182621.00
649.00	183618.00
650.00	184945.00
651.00	186247.00
652.00	186314.00
653.00	186633.00
654.00	187126.00
655.00	187738.00
656.00	187678.00
657.00	189071.00
658.00	190228.00
659.00	190260.00
660.00	191307.00
661.00	191693.00
662.00	192252.00
663.00	192741.00
664.00	194438.00
665.00	195001.00
666.00	196180.00
667.00	196719.00
668.00	199376.00
669.00	199561.00
670.00	202895.00
671.00	205708.00
672.00	209918.00
673.00	214151.00
674.00	219464.00
675.00	226240.00
676.00	231416.00
677.00	238081.00
678.00	244610.00
679.00	250865.00
680.00	254547.00
681.00	255970.00
682.00	256797.00
683.00	255872.00
684.00	253698.00
685.00	248989.00
686.00	243163.00
687.00	238523.00
688.00	232987.00
689.00	228866.00
690.00	223932.00
691.00	221217.00
692.00	219485.00
693.00	217633.00
694.00	216449.00
695.00	216360.00
696.00	216367.00
697.00	216810.00
698.00	216466.00
699.00	217729.00
700.00	218171.00
701.00	219135.00
702.00	219382.00
703.00	219892.00
704.00	220972.00
705.00	220640.00
706.00	221577.00
707.00	221874.00
708.00	223078.00
709.00	223603.00
710.00	224498.00
711.00	224942.00
712.00	224585.00
713.00	226102.00
714.00	226113.00
715.00	227429.00
716.00	227464.00
717.00	228830.00
718.00	229209.00
719.00	229391.00
720.00	230051.00
721.00	229988.00
722.00	230194.00
723.00	231872.00
724.00	232743.00
725.00	233090.00
726.00	232425.00
727.00	233660.00
728.00	235013.00
729.00	235209.00
730.00	235806.00
731.00	236895.00
732.00	236321.00
733.00	236587.00
734.00	237659.00
735.00	238180.00
736.00	238929.00
737.00	238629.00
738.00	239257.00
739.00	240204.00
740.00	240964.00
741.00	241781.00
742.00	241256.00
743.00	241370.00
744.00	242579.00
745.00	243918.00
746.00	244229.00
747.00	245436.00
748.00	244958.00
749.00	245612.00
750.00	245962.00
751.00	247607.00
752.00	248323.00
753.00	250243.00
754.00	251930.00
755.00	253109.00
756.00	253287.00
757.00	257074.00
758.00	257143.00
759.00	257484.00
760.00	258956.00
761.00	259604.00
762.00	259842.00
763.00	259608.00
764.00	258872.00
765.00	257445.00
766.00	257302.00
767.00	257219.00
768.00	255818.00
769.00	256529.00
770.00	255374.00
771.00	255582.00
772.00	256681.00
773.00	255383.00
774.00	254398.00
775.00	255459.00
776.00	255391.00
777.00	255411.00
778.00	256054.00
779.00	255783.00
780.00	256422.00
781.00	256386.00
782.00	257070.00
783.00	258129.00
784.00	257492.00
785.00	256806.00
786.00	258492.00
787.00	258694.00
788.00	258673.00
789.00	258302.00
790.00	259609.00
791.00	259835.00
792.00	260058.00
793.00	261516.00
794.00	260950.00
795.00	261620.00
796.00	263292.00
797.00	263725.00
798.00	263425.00
799.00	265857.00
800.00	265842.00
801.00	267802.00
802.00	269252.00
803.00	270496.00
804.00	272017.00
805.00	273545.00
806.00	274690.00
807.00	276313.00
808.00	276391.00
809.00	277289.00
810.00	277868.00
811.00	276725.00
812.00	275680.00
813.00	276150.00
814.00	274871.00
815.00	273897.00
816.00	272593.00
817.00	271791.00
818.00	270777.00
819.00	271136.00
820.00	270446.00
821.00	269950.00
822.00	268877.00
823.00	270703.00
824.00	269188.00
825.00	269943.00
826.00	270117.00
827.00	269940.00
828.00	271423.00
829.00	271847.00
830.00	271832.00
831.00	272402.00
832.00	272596.00
833.00	271975.00
834.00	272683.00
835.00	273536.00
836.00	273545.00
837.00	273569.00
838.00	274692.00
839.00	274746.00
840.00	273949.00
841.00	276561.00
842.00	275087.00
843.00	275400.00
844.00	275959.00
845.00	276663.00
846.00	277138.00
847.00	277512.00
848.00	279032.00
849.00	278992.00
850.00	278599.00
851.00	280494.00
852.00	280433.00
853.00	280900.00
854.00	280290.00
855.00	281788.00
856.00	282231.00
857.00	282017.00
858.00	283078.00
859.00	282445.00
860.00	282425.00
861.00	282775.00
862.00	283965.00
863.00	283850.00
864.00	285557.00
865.00	285718.00
866.00	285465.00
867.00	286499.00
868.00	287001.00
869.00	286796.00
870.00	288866.00
871.00	288002.00
872.00	289953.00
873.00	290884.00
874.00	291327.00
875.00	292969.00
876.00	293835.00
877.00	294030.00
878.00	295482.00
879.00	296972.00
880.00	297695.00
881.00	298749.00
882.00	300565.00
883.00	300572.00
884.00	303530.00
885.00	304189.00
886.00	306326.00
887.00	308007.00
888.00	310156.00
889.00	311470.00
890.00	314932.00
891.00	318370.00
892.00	320521.00
893.00	323315.00
894.00	325256.00
895.00	329111.00
896.00	333221.00
897.00	337780.00
898.00	341629.00
899.00	345068.00
900.00	348692.00
901.00	354099.00
902.00	357901.00
903.00	362051.00
904.00	366437.00
905.00	374341.00
906.00	379268.00
907.00	385780.00
908.00	392362.00
909.00	399327.00
910.00	406897.00
911.00	416739.00
912.00	427513.00
913.00	440619.00
914.00	453052.00
915.00	468917.00
916.00	486934.00
917.00	505806.00
918.00	528407.00
919.00	551898.00
920.00	577993.00
921.00	608376.00
922.00	637987.00
923.00	673012.00
924.00	709592.00
925.00	747065.00
926.00	790932.00
927.00	832875.00
928.00	874911.00
929.00	919426.00
930.00	965328.00
931.00	1008425.00
932.00	1051554.00
933.00	1091702.00
934.00	1128473.00
935.00	1165678.00
936.00	1196348.00
937.00	1220373.00
938.00	1240563.00
939.00	1254715.00
940.00	1262831.00
941.00	1263788.00
942.00	1258811.00
943.00	1249315.00
944.00	1233166.00
945.00	1211224.00
946.00	1185983.00
947.00	1152767.00
948.00	1120536.00
949.00	1080017.00
950.00	1036669.00
951.00	994555.00
952.00	949446.00
953.00	902281.00
954.00	855763.00
955.00	812787.00
956.00	767871.00
957.00	724920.00
958.00	683527.00
959.00	644426.00
960.00	608037.00
961.00	573558.00
962.00	543242.00
963.00	511002.00
964.00	484583.00
965.00	458260.00
966.00	435642.00
967.00	413435.00
968.00	395689.00
969.00	377592.00
970.00	361875.00
971.00	348125.00
972.00	336271.00
973.00	324887.00
974.00	316125.00
975.00	308022.00
976.00	301431.00
977.00	294936.00
978.00	292012.00
979.00	288675.00
980.00	287823.00
981.00	289579.00
982.00	293229.00
983.00	298957.00
984.00	307097.00
985.00	319727.00
986.00	333797.00
987.00	352551.00
988.00	373675.00
989.00	396141.00
990.00	419653.00
991.00	447117.00
992.00	470622.00
993.00	495612.00
994.00	516234.00
995.00	531746.00
996.00	542051.00
997.00	543912.00
998.00	541482.00
999.00	530472.00
1000.00	514305.00
1001.00	489509.00
1002.00	462366.00
1003.00	433285.00
1004.00	402709.00
1005.00	371563.00
1006.00	342318.00
1007.00	315137.00
1008.00	292760.00
1009.00	272080.00
1010.00	257387.00
1011.00	243798.00
1012.00	235937.00
1013.00	229490.00
1014.00	223588.00
1015.00	221372.00
1016.00	219295.00
1017.00	218716.00
1018.00	218853.00
1019.00	219586.00
1020.00	219112.00
1021.00	219892.00
1022.00	221517.00
1023.00	222865.00
1024.00	225541.00
