Date:	2023-08-23		
Time:	20:54		
Sample name:	MI1D_E_F		
Position:	1068.000049	mm	
Sample surface:	4.309305	cm	
Tube anode:	Mo		
Tube voltage:	30	kV	
Tube current:	30	mA	
Comments	not in position		
Gain	0.060000		
peaking_time	1.500000	m-sec	
trigger_threshold	653.076172	V	
mca_bin_width	17.500000	no:	
number_mca_channels	1024.000000	no:	
gap_time	0.080000	m-sec	
trigger_peaking_time	0.060000	m-sec	
livetime	6.924296	seconds	
runtime	10.007380	seconds	
input_count_rate	44244.146490	cps	
output_count_rate	30613.606668	cps	
triggers	0	seconds	
events_in_run	0	seconds	
channel	content		
 1.00	 0.00
 2.00	 0.00
 3.00	 0.00
 4.00	 0.00
 5.00	 0.00
 6.00	 0.00
 7.00	 0.00
 8.00	 0.00
 9.00	 0.00
10.00	 0.00
11.00	 0.00
12.00	 0.00
13.00	 0.00
14.00	 0.00
15.00	 0.00
16.00	 0.00
17.00	 0.00
18.00	 0.00
19.00	 0.00
20.00	 0.00
21.00	 0.00
22.00	 0.00
23.00	 0.00
24.00	 0.00
25.00	 0.00
26.00	 0.00
27.00	 0.00
28.00	 0.00
29.00	 0.00
30.00	 0.00
31.00	 0.00
32.00	 3.00
33.00	 5.00
34.00	 7.00
35.00	15.00
36.00	23.00
37.00	33.00
38.00	31.00
39.00	57.00
40.00	99.00
41.00	137.00
42.00	197.00
43.00	267.00
44.00	382.00
45.00	478.00
46.00	667.00
47.00	814.00
48.00	1109.00
49.00	1468.00
50.00	1848.00
51.00	2231.00
52.00	2686.00
53.00	3387.00
54.00	3986.00
55.00	4691.00
56.00	5528.00
57.00	6357.00
58.00	7067.00
59.00	7818.00
60.00	8644.00
61.00	9582.00
62.00	10426.00
63.00	11079.00
64.00	11654.00
65.00	12416.00
66.00	12888.00
67.00	13188.00
68.00	13473.00
69.00	13942.00
70.00	13932.00
71.00	14088.00
72.00	14035.00
73.00	13868.00
74.00	13955.00
75.00	13737.00
76.00	13647.00
77.00	13454.00
78.00	13459.00
79.00	13421.00
80.00	13191.00
81.00	13175.00
82.00	13375.00
83.00	13655.00
84.00	13665.00
85.00	13732.00
86.00	13889.00
87.00	13249.00
88.00	13023.00
89.00	12355.00
90.00	12097.00
91.00	11386.00
92.00	10985.00
93.00	10809.00
94.00	10377.00
95.00	10437.00
96.00	10209.00
97.00	10269.00
98.00	10124.00
99.00	10073.00
100.00	10157.00
101.00	10015.00
102.00	10034.00
103.00	9687.00
104.00	9548.00
105.00	9620.00
106.00	9493.00
107.00	9375.00
108.00	9286.00
109.00	9296.00
110.00	9134.00
111.00	9076.00
112.00	8822.00
113.00	8663.00
114.00	8593.00
115.00	8659.00
116.00	8125.00
117.00	8003.00
118.00	7866.00
119.00	7644.00
120.00	7673.00
121.00	7479.00
122.00	7187.00
123.00	7156.00
124.00	7189.00
125.00	7000.00
126.00	6919.00
127.00	6736.00
128.00	6788.00
129.00	6654.00
130.00	6628.00
131.00	6804.00
132.00	6596.00
133.00	6532.00
134.00	6416.00
135.00	6434.00
136.00	6240.00
137.00	6065.00
138.00	5756.00
139.00	5660.00
140.00	5487.00
141.00	5459.00
142.00	5377.00
143.00	5279.00
144.00	5137.00
145.00	5168.00
146.00	5035.00
147.00	5052.00
148.00	4978.00
149.00	5000.00
150.00	4931.00
151.00	4913.00
152.00	4876.00
153.00	4873.00
154.00	4761.00
155.00	4741.00
156.00	4609.00
157.00	4660.00
158.00	4532.00
159.00	4693.00
160.00	4600.00
161.00	4840.00
162.00	4959.00
163.00	5287.00
164.00	6055.00
165.00	7080.00
166.00	8160.00
167.00	9660.00
168.00	11269.00
169.00	12175.00
170.00	12852.00
171.00	12669.00
172.00	11748.00
173.00	10379.00
174.00	8887.00
175.00	7455.00
176.00	6143.00
177.00	5311.00
178.00	4823.00
179.00	4490.00
180.00	4450.00
181.00	4606.00
182.00	4721.00
183.00	4681.00
184.00	4679.00
185.00	4551.00
186.00	4504.00
187.00	4511.00
188.00	4325.00
189.00	4179.00
190.00	3917.00
191.00	3831.00
192.00	3873.00
193.00	3787.00
194.00	3511.00
195.00	3578.00
196.00	3589.00
197.00	3508.00
198.00	3494.00
199.00	3445.00
200.00	3514.00
201.00	3628.00
202.00	3716.00
203.00	3825.00
204.00	4136.00
205.00	4712.00
206.00	5290.00
207.00	6274.00
208.00	7529.00
209.00	8743.00
210.00	9964.00
211.00	10682.00
212.00	11100.00
213.00	11018.00
214.00	10161.00
215.00	8945.00
216.00	7928.00
217.00	6562.00
218.00	5578.00
219.00	4635.00
220.00	4208.00
221.00	3847.00
222.00	3708.00
223.00	3776.00
224.00	3884.00
225.00	3972.00
226.00	4250.00
227.00	4308.00
228.00	4501.00
229.00	4756.00
230.00	4830.00
231.00	4735.00
232.00	4634.00
233.00	4687.00
234.00	4287.00
235.00	4300.00
236.00	3967.00
237.00	3722.00
238.00	3716.00
239.00	3616.00
240.00	3583.00
241.00	3737.00
242.00	3697.00
243.00	3759.00
244.00	3643.00
245.00	3939.00
246.00	4197.00
247.00	4433.00
248.00	4912.00
249.00	5841.00
250.00	7303.00
251.00	9307.00
252.00	12052.00
253.00	15810.00
254.00	20003.00
255.00	24378.00
256.00	29219.00
257.00	32725.00
258.00	34730.00
259.00	34946.00
260.00	33033.00
261.00	29930.00
262.00	25513.00
263.00	21039.00
264.00	16570.00
265.00	13271.00
266.00	10611.00
267.00	8814.00
268.00	8076.00
269.00	7239.00
270.00	7144.00
271.00	7376.00
272.00	7832.00
273.00	8295.00
274.00	9023.00
275.00	9986.00
276.00	10914.00
277.00	11786.00
278.00	12651.00
279.00	13496.00
280.00	13951.00
281.00	14064.00
282.00	14324.00
283.00	13877.00
284.00	13690.00
285.00	12699.00
286.00	11849.00
287.00	11048.00
288.00	10017.00
289.00	9326.00
290.00	8640.00
291.00	8342.00
292.00	8359.00
293.00	8346.00
294.00	8421.00
295.00	8648.00
296.00	8867.00
297.00	8771.00
298.00	8973.00
299.00	9071.00
300.00	9027.00
301.00	9062.00
302.00	9036.00
303.00	9144.00
304.00	9269.00
305.00	9615.00
306.00	9647.00
307.00	10034.00
308.00	9923.00
309.00	10576.00
310.00	10675.00
311.00	10740.00
312.00	10954.00
313.00	11117.00
314.00	11161.00
315.00	11227.00
316.00	11217.00
317.00	11220.00
318.00	11230.00
319.00	11404.00
320.00	11597.00
321.00	11741.00
322.00	11351.00
323.00	11510.00
324.00	11736.00
325.00	12016.00
326.00	12199.00
327.00	12377.00
328.00	12754.00
329.00	12832.00
330.00	13065.00
331.00	13476.00
332.00	13549.00
333.00	13998.00
334.00	14225.00
335.00	14453.00
336.00	14645.00
337.00	14753.00
338.00	15286.00
339.00	15398.00
340.00	15621.00
341.00	15629.00
342.00	15656.00
343.00	15710.00
344.00	15741.00
345.00	15709.00
346.00	16001.00
347.00	16379.00
348.00	16343.00
349.00	16767.00
350.00	17547.00
351.00	17824.00
352.00	18975.00
353.00	20341.00
354.00	22347.00
355.00	26476.00
356.00	33263.00
357.00	43755.00
358.00	60130.00
359.00	84071.00
360.00	117231.00
361.00	160369.00
362.00	210598.00
363.00	266282.00
364.00	320202.00
365.00	367643.00
366.00	400900.00
367.00	410195.00
368.00	399870.00
369.00	366057.00
370.00	318580.00
371.00	262624.00
372.00	206450.00
373.00	155002.00
374.00	112093.00
375.00	80609.00
376.00	57842.00
377.00	43832.00
378.00	35051.00
379.00	30075.00
380.00	27280.00
381.00	26777.00
382.00	26448.00
383.00	26345.00
384.00	26696.00
385.00	27257.00
386.00	27282.00
387.00	27715.00
388.00	28110.00
389.00	28881.00
390.00	29660.00
391.00	30458.00
392.00	31548.00
393.00	32825.00
394.00	35322.00
395.00	37751.00
396.00	41909.00
397.00	46999.00
398.00	53973.00
399.00	62229.00
400.00	70316.00
401.00	78752.00
402.00	87418.00
403.00	93409.00
404.00	96500.00
405.00	96428.00
406.00	93403.00
407.00	87436.00
408.00	79298.00
409.00	70686.00
410.00	62441.00
411.00	54889.00
412.00	49171.00
413.00	44656.00
414.00	42210.00
415.00	40724.00
416.00	39495.00
417.00	39596.00
418.00	40437.00
419.00	40990.00
420.00	42246.00
421.00	43784.00
422.00	45948.00
423.00	48252.00
424.00	50566.00
425.00	52529.00
426.00	55095.00
427.00	56375.00
428.00	57828.00
429.00	57462.00
430.00	57508.00
431.00	56354.00
432.00	54449.00
433.00	52809.00
434.00	51592.00
435.00	50302.00
436.00	49166.00
437.00	48714.00
438.00	48359.00
439.00	48254.00
440.00	48717.00
441.00	49003.00
442.00	49498.00
443.00	50132.00
444.00	50432.00
445.00	51173.00
446.00	51349.00
447.00	51963.00
448.00	52957.00
449.00	53376.00
450.00	54037.00
451.00	54834.00
452.00	55534.00
453.00	56573.00
454.00	57804.00
455.00	58985.00
456.00	60233.00
457.00	61895.00
458.00	63035.00
459.00	64858.00
460.00	66119.00
461.00	67353.00
462.00	69246.00
463.00	69375.00
464.00	70472.00
465.00	71273.00
466.00	71941.00
467.00	72321.00
468.00	72896.00
469.00	73401.00
470.00	74499.00
471.00	74331.00
472.00	74958.00
473.00	76087.00
474.00	75276.00
475.00	76080.00
476.00	76242.00
477.00	76666.00
478.00	77449.00
479.00	77220.00
480.00	78510.00
481.00	78198.00
482.00	77966.00
483.00	76914.00
484.00	76699.00
485.00	75825.00
486.00	75110.00
487.00	75180.00
488.00	75021.00
489.00	75555.00
490.00	75517.00
491.00	75360.00
492.00	76381.00
493.00	76391.00
494.00	77501.00
495.00	78141.00
496.00	78717.00
497.00	78709.00
498.00	79338.00
499.00	79022.00
500.00	79663.00
501.00	79573.00
502.00	81021.00
503.00	81421.00
504.00	81580.00
505.00	81637.00
506.00	82491.00
507.00	83392.00
508.00	84170.00
509.00	84821.00
510.00	85622.00
511.00	86288.00
512.00	87198.00
513.00	88039.00
514.00	88917.00
515.00	89180.00
516.00	90014.00
517.00	89955.00
518.00	90667.00
519.00	91488.00
520.00	92473.00
521.00	93587.00
522.00	95115.00
523.00	95705.00
524.00	96578.00
525.00	98013.00
526.00	98587.00
527.00	100272.00
528.00	101874.00
529.00	103235.00
530.00	103973.00
531.00	105270.00
532.00	107018.00
533.00	107757.00
534.00	108273.00
535.00	109820.00
536.00	110385.00
537.00	111647.00
538.00	112205.00
539.00	112046.00
540.00	113314.00
541.00	114606.00
542.00	115083.00
543.00	115750.00
544.00	116459.00
545.00	117187.00
546.00	117873.00
547.00	119282.00
548.00	120142.00
549.00	121660.00
550.00	122476.00
551.00	123280.00
552.00	123497.00
553.00	124755.00
554.00	124879.00
555.00	124288.00
556.00	125014.00
557.00	125029.00
558.00	124722.00
559.00	125766.00
560.00	125788.00
561.00	125355.00
562.00	125963.00
563.00	125601.00
564.00	126075.00
565.00	127041.00
566.00	127358.00
567.00	127696.00
568.00	128820.00
569.00	129216.00
570.00	129762.00
571.00	129954.00
572.00	131124.00
573.00	131000.00
574.00	132026.00
575.00	132266.00
576.00	132495.00
577.00	132865.00
578.00	132811.00
579.00	133499.00
580.00	134754.00
581.00	135123.00
582.00	136529.00
583.00	136242.00
584.00	137445.00
585.00	138299.00
586.00	138910.00
587.00	139672.00
588.00	140300.00
589.00	140166.00
590.00	141364.00
591.00	142392.00
592.00	142654.00
593.00	143395.00
594.00	144902.00
595.00	144754.00
596.00	146712.00
597.00	145920.00
598.00	146809.00
599.00	148697.00
600.00	148413.00
601.00	148898.00
602.00	150903.00
603.00	150985.00
604.00	151295.00
605.00	153098.00
606.00	153422.00
607.00	154706.00
608.00	155084.00
609.00	156964.00
610.00	157660.00
611.00	156696.00
612.00	158073.00
613.00	158880.00
614.00	160166.00
615.00	160848.00
616.00	162140.00
617.00	162770.00
618.00	163422.00
619.00	164419.00
620.00	165456.00
621.00	165601.00
622.00	165977.00
623.00	167070.00
624.00	167644.00
625.00	167951.00
626.00	169343.00
627.00	170163.00
628.00	170576.00
629.00	171434.00
630.00	171772.00
631.00	172076.00
632.00	173372.00
633.00	173700.00
634.00	174244.00
635.00	175084.00
636.00	175767.00
637.00	176432.00
638.00	178209.00
639.00	179074.00
640.00	179602.00
641.00	179985.00
642.00	181465.00
643.00	182299.00
644.00	183069.00
645.00	183598.00
646.00	184311.00
647.00	184887.00
648.00	185611.00
649.00	185930.00
650.00	186305.00
651.00	188383.00
652.00	187786.00
653.00	188468.00
654.00	188690.00
655.00	189805.00
656.00	190808.00
657.00	191497.00
658.00	192546.00
659.00	192799.00
660.00	194059.00
661.00	193671.00
662.00	194639.00
663.00	195635.00
664.00	196799.00
665.00	197294.00
666.00	197950.00
667.00	199439.00
668.00	201128.00
669.00	201251.00
670.00	204038.00
671.00	207267.00
672.00	209198.00
673.00	212463.00
674.00	215483.00
675.00	221082.00
676.00	225934.00
677.00	230462.00
678.00	234706.00
679.00	239449.00
680.00	241729.00
681.00	243561.00
682.00	243723.00
683.00	243589.00
684.00	242256.00
685.00	239896.00
686.00	235231.00
687.00	232043.00
688.00	229249.00
689.00	225540.00
690.00	223514.00
691.00	221568.00
692.00	219785.00
693.00	218905.00
694.00	219559.00
695.00	218245.00
696.00	218709.00
697.00	219617.00
698.00	219894.00
699.00	220105.00
700.00	220596.00
701.00	221835.00
702.00	222514.00
703.00	222266.00
704.00	223962.00
705.00	223768.00
706.00	223893.00
707.00	225152.00
708.00	226235.00
709.00	226505.00
710.00	228081.00
711.00	228020.00
712.00	227843.00
713.00	228970.00
714.00	230372.00
715.00	230684.00
716.00	230762.00
717.00	231295.00
718.00	231701.00
719.00	232940.00
720.00	232666.00
721.00	233844.00
722.00	234613.00
723.00	235323.00
724.00	235804.00
725.00	235781.00
726.00	236697.00
727.00	236675.00
728.00	237468.00
729.00	237067.00
730.00	238630.00
731.00	239650.00
732.00	239843.00
733.00	239537.00
734.00	241311.00
735.00	241901.00
736.00	242970.00
737.00	243392.00
738.00	242524.00
739.00	243013.00
740.00	244746.00
741.00	243658.00
742.00	246118.00
743.00	245200.00
744.00	246163.00
745.00	246420.00
746.00	247017.00
747.00	248264.00
748.00	247764.00
749.00	249444.00
750.00	250686.00
751.00	251326.00
752.00	252584.00
753.00	253036.00
754.00	253462.00
755.00	255730.00
756.00	256368.00
757.00	257477.00
758.00	258537.00
759.00	258878.00
760.00	259541.00
761.00	259935.00
762.00	259804.00
763.00	259575.00
764.00	259368.00
765.00	260299.00
766.00	259569.00
767.00	259775.00
768.00	259239.00
769.00	259177.00
770.00	259739.00
771.00	258227.00
772.00	260014.00
773.00	259748.00
774.00	258564.00
775.00	259301.00
776.00	260532.00
777.00	259476.00
778.00	259404.00
779.00	260899.00
780.00	261711.00
781.00	261241.00
782.00	261631.00
783.00	261785.00
784.00	262642.00
785.00	262206.00
786.00	262586.00
787.00	263566.00
788.00	263298.00
789.00	263356.00
790.00	264686.00
791.00	265410.00
792.00	264377.00
793.00	265232.00
794.00	266001.00
795.00	266421.00
796.00	266747.00
797.00	267780.00
798.00	269015.00
799.00	269855.00
800.00	270259.00
801.00	271633.00
802.00	272491.00
803.00	274674.00
804.00	275822.00
805.00	276010.00
806.00	277647.00
807.00	277485.00
808.00	279797.00
809.00	280069.00
810.00	279943.00
811.00	280697.00
812.00	279452.00
813.00	279580.00
814.00	278544.00
815.00	278172.00
816.00	276124.00
817.00	275801.00
818.00	274998.00
819.00	275255.00
820.00	274232.00
821.00	275095.00
822.00	274534.00
823.00	274848.00
824.00	274796.00
825.00	275651.00
826.00	274949.00
827.00	277092.00
828.00	276213.00
829.00	275959.00
830.00	276344.00
831.00	277073.00
832.00	276700.00
833.00	278968.00
834.00	279306.00
835.00	279141.00
836.00	278912.00
837.00	279192.00
838.00	279200.00
839.00	279831.00
840.00	280408.00
841.00	279953.00
842.00	281610.00
843.00	281269.00
844.00	280794.00
845.00	282406.00
846.00	282426.00
847.00	283252.00
848.00	283991.00
849.00	283528.00
850.00	283377.00
851.00	285229.00
852.00	285209.00
853.00	286471.00
854.00	286214.00
855.00	287186.00
856.00	286486.00
857.00	286920.00
858.00	286705.00
859.00	289180.00
860.00	288435.00
861.00	289187.00
862.00	290279.00
863.00	289792.00
864.00	290774.00
865.00	291112.00
866.00	291931.00
867.00	292334.00
868.00	292494.00
869.00	293364.00
870.00	294828.00
871.00	295853.00
872.00	296793.00
873.00	296071.00
874.00	297680.00
875.00	298477.00
876.00	299184.00
877.00	300720.00
878.00	301115.00
879.00	301750.00
880.00	304332.00
881.00	304597.00
882.00	306597.00
883.00	308260.00
884.00	309182.00
885.00	311639.00
886.00	313087.00
887.00	314252.00
888.00	316577.00
889.00	319487.00
890.00	320648.00
891.00	323667.00
892.00	325952.00
893.00	328527.00
894.00	332973.00
895.00	336626.00
896.00	338932.00
897.00	343737.00
898.00	346963.00
899.00	352184.00
900.00	355308.00
901.00	360721.00
902.00	365342.00
903.00	369752.00
904.00	374694.00
905.00	380227.00
906.00	386115.00
907.00	392858.00
908.00	399962.00
909.00	409365.00
910.00	417855.00
911.00	428101.00
912.00	437354.00
913.00	451110.00
914.00	465871.00
915.00	482203.00
916.00	501559.00
917.00	520397.00
918.00	544395.00
919.00	567145.00
920.00	594848.00
921.00	626692.00
922.00	659392.00
923.00	693594.00
924.00	732509.00
925.00	771957.00
926.00	812964.00
927.00	856823.00
928.00	902883.00
929.00	946779.00
930.00	991940.00
931.00	1036920.00
932.00	1078885.00
933.00	1121281.00
934.00	1158461.00
935.00	1192012.00
936.00	1221476.00
937.00	1247729.00
938.00	1267055.00
939.00	1281049.00
940.00	1288226.00
941.00	1290313.00
942.00	1284041.00
943.00	1273362.00
944.00	1255396.00
945.00	1233109.00
946.00	1205013.00
947.00	1171069.00
948.00	1134389.00
949.00	1096138.00
950.00	1052269.00
951.00	1007668.00
952.00	960181.00
953.00	915599.00
954.00	870142.00
955.00	821310.00
956.00	776740.00
957.00	734041.00
958.00	692724.00
959.00	653123.00
960.00	614738.00
961.00	579728.00
962.00	549398.00
963.00	517754.00
964.00	489680.00
965.00	464191.00
966.00	440508.00
967.00	420534.00
968.00	400408.00
969.00	383254.00
970.00	368400.00
971.00	353520.00
972.00	341451.00
973.00	330803.00
974.00	320747.00
975.00	312153.00
976.00	305197.00
977.00	301464.00
978.00	296673.00
979.00	294548.00
980.00	293162.00
981.00	293849.00
982.00	297707.00
983.00	303921.00
984.00	312565.00
985.00	327197.00
986.00	340422.00
987.00	360074.00
988.00	379199.00
989.00	402999.00
990.00	428468.00
991.00	455003.00
992.00	480046.00
993.00	501532.00
994.00	523313.00
995.00	538281.00
996.00	547403.00
997.00	551382.00
998.00	546832.00
999.00	535040.00
1000.00	518760.00
1001.00	495398.00
1002.00	466733.00
1003.00	437460.00
1004.00	406556.00
1005.00	374618.00
1006.00	345650.00
1007.00	318957.00
1008.00	295409.00
1009.00	276441.00
1010.00	260349.00
1011.00	249091.00
1012.00	239340.00
1013.00	233037.00
1014.00	228578.00
1015.00	225615.00
1016.00	223264.00
1017.00	223214.00
1018.00	223055.00
1019.00	223000.00
1020.00	224119.00
1021.00	224966.00
1022.00	226312.00
1023.00	227824.00
1024.00	230371.00
