Date:	2023-08-24		
Time:	12:36		
Sample name:	MI1H_I_J		
Position:	612.000049	mm	
Sample surface:	5.790532	cm	
Tube anode:	Mo		
Tube voltage:	30	kV	
Tube current:	30	mA	
Comments	not in position		
Gain	0.060000		
peaking_time	1.500000	m-sec	
trigger_threshold	653.076172	V	
mca_bin_width	17.500000	no:	
number_mca_channels	1024.000000	no:	
gap_time	0.080000	m-sec	
trigger_peaking_time	0.060000	m-sec	
livetime	6.241955	seconds	
runtime	10.006948	seconds	
input_count_rate	65392.161994	cps	
output_count_rate	40787.760012	cps	
triggers	0	seconds	
events_in_run	0	seconds	
channel	content		
 1.00	 0.00
 2.00	 0.00
 3.00	 0.00
 4.00	 0.00
 5.00	 0.00
 6.00	 0.00
 7.00	 0.00
 8.00	 0.00
 9.00	 0.00
10.00	 0.00
11.00	 0.00
12.00	 0.00
13.00	 0.00
14.00	 0.00
15.00	 0.00
16.00	 0.00
17.00	 0.00
18.00	 0.00
19.00	 0.00
20.00	 0.00
21.00	 0.00
22.00	 0.00
23.00	 0.00
24.00	 0.00
25.00	 0.00
26.00	 0.00
27.00	 0.00
28.00	 0.00
29.00	 0.00
30.00	 0.00
31.00	 1.00
32.00	 0.00
33.00	 0.00
34.00	 0.00
35.00	 2.00
36.00	 2.00
37.00	 5.00
38.00	 1.00
39.00	 1.00
40.00	11.00
41.00	13.00
42.00	19.00
43.00	23.00
44.00	35.00
45.00	49.00
46.00	55.00
47.00	78.00
48.00	84.00
49.00	124.00
50.00	181.00
51.00	191.00
52.00	225.00
53.00	292.00
54.00	362.00
55.00	446.00
56.00	476.00
57.00	567.00
58.00	628.00
59.00	710.00
60.00	794.00
61.00	893.00
62.00	937.00
63.00	980.00
64.00	1052.00
65.00	1140.00
66.00	1121.00
67.00	1237.00
68.00	1200.00
69.00	1212.00
70.00	1285.00
71.00	1256.00
72.00	1328.00
73.00	1345.00
74.00	1258.00
75.00	1292.00
76.00	1253.00
77.00	1197.00
78.00	1191.00
79.00	1235.00
80.00	1209.00
81.00	1206.00
82.00	1224.00
83.00	1227.00
84.00	1233.00
85.00	1261.00
86.00	1259.00
87.00	1232.00
88.00	1160.00
89.00	1097.00
90.00	1119.00
91.00	1061.00
92.00	1010.00
93.00	961.00
94.00	1013.00
95.00	1005.00
96.00	966.00
97.00	962.00
98.00	960.00
99.00	921.00
100.00	944.00
101.00	852.00
102.00	888.00
103.00	906.00
104.00	892.00
105.00	830.00
106.00	878.00
107.00	875.00
108.00	870.00
109.00	810.00
110.00	875.00
111.00	817.00
112.00	823.00
113.00	833.00
114.00	770.00
115.00	795.00
116.00	769.00
117.00	783.00
118.00	764.00
119.00	759.00
120.00	730.00
121.00	684.00
122.00	686.00
123.00	675.00
124.00	630.00
125.00	620.00
126.00	626.00
127.00	616.00
128.00	643.00
129.00	674.00
130.00	618.00
131.00	624.00
132.00	612.00
133.00	607.00
134.00	632.00
135.00	538.00
136.00	571.00
137.00	622.00
138.00	540.00
139.00	493.00
140.00	524.00
141.00	467.00
142.00	493.00
143.00	441.00
144.00	507.00
145.00	480.00
146.00	418.00
147.00	446.00
148.00	437.00
149.00	448.00
150.00	442.00
151.00	409.00
152.00	451.00
153.00	442.00
154.00	423.00
155.00	413.00
156.00	443.00
157.00	416.00
158.00	455.00
159.00	389.00
160.00	467.00
161.00	455.00
162.00	452.00
163.00	554.00
164.00	663.00
165.00	717.00
166.00	883.00
167.00	1018.00
168.00	1181.00
169.00	1351.00
170.00	1385.00
171.00	1321.00
172.00	1191.00
173.00	1058.00
174.00	966.00
175.00	764.00
176.00	611.00
177.00	563.00
178.00	448.00
179.00	423.00
180.00	405.00
181.00	403.00
182.00	448.00
183.00	430.00
184.00	450.00
185.00	425.00
186.00	421.00
187.00	422.00
188.00	394.00
189.00	388.00
190.00	376.00
191.00	397.00
192.00	330.00
193.00	337.00
194.00	364.00
195.00	320.00
196.00	326.00
197.00	321.00
198.00	316.00
199.00	308.00
200.00	320.00
201.00	309.00
202.00	293.00
203.00	342.00
204.00	388.00
205.00	473.00
206.00	554.00
207.00	672.00
208.00	790.00
209.00	927.00
210.00	993.00
211.00	1035.00
212.00	1166.00
213.00	1191.00
214.00	1047.00
215.00	917.00
216.00	856.00
217.00	652.00
218.00	565.00
219.00	452.00
220.00	441.00
221.00	397.00
222.00	365.00
223.00	348.00
224.00	377.00
225.00	346.00
226.00	345.00
227.00	430.00
228.00	446.00
229.00	444.00
230.00	465.00
231.00	450.00
232.00	404.00
233.00	437.00
234.00	393.00
235.00	386.00
236.00	378.00
237.00	319.00
238.00	340.00
239.00	337.00
240.00	318.00
241.00	303.00
242.00	320.00
243.00	331.00
244.00	336.00
245.00	342.00
246.00	374.00
247.00	379.00
248.00	458.00
249.00	565.00
250.00	728.00
251.00	881.00
252.00	1253.00
253.00	1692.00
254.00	2284.00
255.00	2869.00
256.00	3645.00
257.00	4141.00
258.00	4598.00
259.00	4712.00
260.00	4674.00
261.00	4197.00
262.00	3640.00
263.00	3055.00
264.00	2347.00
265.00	1809.00
266.00	1403.00
267.00	1085.00
268.00	885.00
269.00	713.00
270.00	714.00
271.00	601.00
272.00	623.00
273.00	593.00
274.00	570.00
275.00	628.00
276.00	690.00
277.00	810.00
278.00	927.00
279.00	1018.00
280.00	1195.00
281.00	1301.00
282.00	1385.00
283.00	1456.00
284.00	1423.00
285.00	1394.00
286.00	1278.00
287.00	1219.00
288.00	1009.00
289.00	928.00
290.00	838.00
291.00	769.00
292.00	686.00
293.00	682.00
294.00	674.00
295.00	692.00
296.00	669.00
297.00	671.00
298.00	677.00
299.00	714.00
300.00	767.00
301.00	730.00
302.00	776.00
303.00	792.00
304.00	796.00
305.00	898.00
306.00	902.00
307.00	869.00
308.00	902.00
309.00	994.00
310.00	941.00
311.00	1004.00
312.00	969.00
313.00	968.00
314.00	938.00
315.00	1021.00
316.00	963.00
317.00	965.00
318.00	997.00
319.00	961.00
320.00	971.00
321.00	1000.00
322.00	1057.00
323.00	976.00
324.00	975.00
325.00	1041.00
326.00	1015.00
327.00	1024.00
328.00	1124.00
329.00	1140.00
330.00	1135.00
331.00	1197.00
332.00	1171.00
333.00	1259.00
334.00	1288.00
335.00	1312.00
336.00	1366.00
337.00	1351.00
338.00	1456.00
339.00	1497.00
340.00	1455.00
341.00	1481.00
342.00	1438.00
343.00	1415.00
344.00	1434.00
345.00	1399.00
346.00	1457.00
347.00	1392.00
348.00	1361.00
349.00	1457.00
350.00	1595.00
351.00	1614.00
352.00	1764.00
353.00	1885.00
354.00	2274.00
355.00	2661.00
356.00	3729.00
357.00	4995.00
358.00	7130.00
359.00	10039.00
360.00	14326.00
361.00	19136.00
362.00	25112.00
363.00	32060.00
364.00	38302.00
365.00	43671.00
366.00	47098.00
367.00	48352.00
368.00	46925.00
369.00	43297.00
370.00	37450.00
371.00	31483.00
372.00	24590.00
373.00	18352.00
374.00	13246.00
375.00	9555.00
376.00	6612.00
377.00	4671.00
378.00	3498.00
379.00	2945.00
380.00	2621.00
381.00	2439.00
382.00	2313.00
383.00	2390.00
384.00	2404.00
385.00	2327.00
386.00	2399.00
387.00	2508.00
388.00	2465.00
389.00	2513.00
390.00	2652.00
391.00	2693.00
392.00	2909.00
393.00	3153.00
394.00	3336.00
395.00	3620.00
396.00	4187.00
397.00	4694.00
398.00	5613.00
399.00	6599.00
400.00	7510.00
401.00	8762.00
402.00	9714.00
403.00	10413.00
404.00	10824.00
405.00	10792.00
406.00	10194.00
407.00	9419.00
408.00	8614.00
409.00	7393.00
410.00	6470.00
411.00	5533.00
412.00	4690.00
413.00	4296.00
414.00	3809.00
415.00	3547.00
416.00	3417.00
417.00	3505.00
418.00	3476.00
419.00	3482.00
420.00	3666.00
421.00	3791.00
422.00	3892.00
423.00	4087.00
424.00	4377.00
425.00	4537.00
426.00	4727.00
427.00	4831.00
428.00	5037.00
429.00	4917.00
430.00	4739.00
431.00	4872.00
432.00	4764.00
433.00	4546.00
434.00	4396.00
435.00	4286.00
436.00	4192.00
437.00	4143.00
438.00	4017.00
439.00	4111.00
440.00	4077.00
441.00	4205.00
442.00	4154.00
443.00	4242.00
444.00	4286.00
445.00	4374.00
446.00	4291.00
447.00	4358.00
448.00	4452.00
449.00	4481.00
450.00	4678.00
451.00	4553.00
452.00	4820.00
453.00	4793.00
454.00	4925.00
455.00	5141.00
456.00	5158.00
457.00	5484.00
458.00	5451.00
459.00	5661.00
460.00	5660.00
461.00	5932.00
462.00	5924.00
463.00	5908.00
464.00	5934.00
465.00	6179.00
466.00	6015.00
467.00	6105.00
468.00	6189.00
469.00	6321.00
470.00	6299.00
471.00	6300.00
472.00	6243.00
473.00	6466.00
474.00	6438.00
475.00	6418.00
476.00	6388.00
477.00	6579.00
478.00	6541.00
479.00	6450.00
480.00	6559.00
481.00	6610.00
482.00	6595.00
483.00	6492.00
484.00	6474.00
485.00	6526.00
486.00	6284.00
487.00	6414.00
488.00	6318.00
489.00	6453.00
490.00	6428.00
491.00	6542.00
492.00	6351.00
493.00	6564.00
494.00	6432.00
495.00	6711.00
496.00	6833.00
497.00	6700.00
498.00	6800.00
499.00	6788.00
500.00	6656.00
501.00	6766.00
502.00	6916.00
503.00	6882.00
504.00	6932.00
505.00	7074.00
506.00	7118.00
507.00	6909.00
508.00	7051.00
509.00	7313.00
510.00	7340.00
511.00	7300.00
512.00	7353.00
513.00	7405.00
514.00	7415.00
515.00	7351.00
516.00	7491.00
517.00	7618.00
518.00	7594.00
519.00	7889.00
520.00	7749.00
521.00	7918.00
522.00	7920.00
523.00	8101.00
524.00	8124.00
525.00	8250.00
526.00	8388.00
527.00	8405.00
528.00	8439.00
529.00	8677.00
530.00	8861.00
531.00	8834.00
532.00	9044.00
533.00	9070.00
534.00	9116.00
535.00	9317.00
536.00	9419.00
537.00	9430.00
538.00	9253.00
539.00	9497.00
540.00	9472.00
541.00	9372.00
542.00	9663.00
543.00	9673.00
544.00	9742.00
545.00	9819.00
546.00	9891.00
547.00	9884.00
548.00	10097.00
549.00	10010.00
550.00	10159.00
551.00	10385.00
552.00	10456.00
553.00	10363.00
554.00	10542.00
555.00	10522.00
556.00	10574.00
557.00	10548.00
558.00	10544.00
559.00	10571.00
560.00	10547.00
561.00	10277.00
562.00	10464.00
563.00	10584.00
564.00	10568.00
565.00	10542.00
566.00	10666.00
567.00	10723.00
568.00	10700.00
569.00	10868.00
570.00	10732.00
571.00	10870.00
572.00	10824.00
573.00	10825.00
574.00	11006.00
575.00	10920.00
576.00	11164.00
577.00	11028.00
578.00	11227.00
579.00	11219.00
580.00	11284.00
581.00	11346.00
582.00	11235.00
583.00	11563.00
584.00	11507.00
585.00	11495.00
586.00	11432.00
587.00	11637.00
588.00	11580.00
589.00	11657.00
590.00	11844.00
591.00	11880.00
592.00	11837.00
593.00	11809.00
594.00	11961.00
595.00	11981.00
596.00	12023.00
597.00	12119.00
598.00	12190.00
599.00	12327.00
600.00	12531.00
601.00	12586.00
602.00	12544.00
603.00	12640.00
604.00	12696.00
605.00	12476.00
606.00	12751.00
607.00	12644.00
608.00	12828.00
609.00	12846.00
610.00	12930.00
611.00	13192.00
612.00	13336.00
613.00	13317.00
614.00	13303.00
615.00	13394.00
616.00	13400.00
617.00	13713.00
618.00	13593.00
619.00	13653.00
620.00	13642.00
621.00	13827.00
622.00	13939.00
623.00	13928.00
624.00	13809.00
625.00	14158.00
626.00	14147.00
627.00	14223.00
628.00	14457.00
629.00	14179.00
630.00	14299.00
631.00	14266.00
632.00	14632.00
633.00	14551.00
634.00	14696.00
635.00	14853.00
636.00	14546.00
637.00	14731.00
638.00	14945.00
639.00	14661.00
640.00	15314.00
641.00	15289.00
642.00	15212.00
643.00	15061.00
644.00	15422.00
645.00	15365.00
646.00	15365.00
647.00	15552.00
648.00	15568.00
649.00	15567.00
650.00	15698.00
651.00	15712.00
652.00	16087.00
653.00	15653.00
654.00	15769.00
655.00	15769.00
656.00	15891.00
657.00	15850.00
658.00	16007.00
659.00	16184.00
660.00	15890.00
661.00	16210.00
662.00	16107.00
663.00	16293.00
664.00	16430.00
665.00	16552.00
666.00	16934.00
667.00	16567.00
668.00	16884.00
669.00	17152.00
670.00	17246.00
671.00	17606.00
672.00	17906.00
673.00	18396.00
674.00	19102.00
675.00	19750.00
676.00	20361.00
677.00	20819.00
678.00	21448.00
679.00	21805.00
680.00	22349.00
681.00	22838.00
682.00	22635.00
683.00	22539.00
684.00	22197.00
685.00	21942.00
686.00	20982.00
687.00	20621.00
688.00	20106.00
689.00	19720.00
690.00	19292.00
691.00	18744.00
692.00	18829.00
693.00	18460.00
694.00	18096.00
695.00	18417.00
696.00	18211.00
697.00	18353.00
698.00	18189.00
699.00	18295.00
700.00	18363.00
701.00	18498.00
702.00	18561.00
703.00	19118.00
704.00	18710.00
705.00	18656.00
706.00	18986.00
707.00	18963.00
708.00	18702.00
709.00	19002.00
710.00	19130.00
711.00	19048.00
712.00	19082.00
713.00	19191.00
714.00	19175.00
715.00	19364.00
716.00	19222.00
717.00	19616.00
718.00	19345.00
719.00	19398.00
720.00	19675.00
721.00	19522.00
722.00	19621.00
723.00	19578.00
724.00	19599.00
725.00	19737.00
726.00	19863.00
727.00	19767.00
728.00	19767.00
729.00	20233.00
730.00	20118.00
731.00	20321.00
732.00	20296.00
733.00	19988.00
734.00	20223.00
735.00	20058.00
736.00	20221.00
737.00	20590.00
738.00	20341.00
739.00	20365.00
740.00	20696.00
741.00	20814.00
742.00	20677.00
743.00	20620.00
744.00	20882.00
745.00	20669.00
746.00	20936.00
747.00	21197.00
748.00	21048.00
749.00	21001.00
750.00	21360.00
751.00	21586.00
752.00	21057.00
753.00	21466.00
754.00	21514.00
755.00	21722.00
756.00	21945.00
757.00	22198.00
758.00	22364.00
759.00	22440.00
760.00	22153.00
761.00	22233.00
762.00	22344.00
763.00	22374.00
764.00	22111.00
765.00	22213.00
766.00	22079.00
767.00	22254.00
768.00	22136.00
769.00	21749.00
770.00	21964.00
771.00	21853.00
772.00	21822.00
773.00	21856.00
774.00	22162.00
775.00	21823.00
776.00	21667.00
777.00	21842.00
778.00	21813.00
779.00	21709.00
780.00	21939.00
781.00	22024.00
782.00	22122.00
783.00	22146.00
784.00	22277.00
785.00	22094.00
786.00	22032.00
787.00	22071.00
788.00	22257.00
789.00	22321.00
790.00	22308.00
791.00	22303.00
792.00	22388.00
793.00	22200.00
794.00	22376.00
795.00	22532.00
796.00	22614.00
797.00	22733.00
798.00	22822.00
799.00	22743.00
800.00	23094.00
801.00	23145.00
802.00	23365.00
803.00	23665.00
804.00	23778.00
805.00	23939.00
806.00	23691.00
807.00	23786.00
808.00	24170.00
809.00	24096.00
810.00	24322.00
811.00	24521.00
812.00	24158.00
813.00	24240.00
814.00	23641.00
815.00	23717.00
816.00	23536.00
817.00	23814.00
818.00	23411.00
819.00	23258.00
820.00	23459.00
821.00	23349.00
822.00	23496.00
823.00	23446.00
824.00	23201.00
825.00	23645.00
826.00	23375.00
827.00	23643.00
828.00	23565.00
829.00	23256.00
830.00	23556.00
831.00	23673.00
832.00	23585.00
833.00	23701.00
834.00	23557.00
835.00	23599.00
836.00	23903.00
837.00	23635.00
838.00	23709.00
839.00	23783.00
840.00	23605.00
841.00	23789.00
842.00	24138.00
843.00	23802.00
844.00	24123.00
845.00	24336.00
846.00	24388.00
847.00	24082.00
848.00	24322.00
849.00	24409.00
850.00	24125.00
851.00	24549.00
852.00	24357.00
853.00	24210.00
854.00	24713.00
855.00	24596.00
856.00	24667.00
857.00	24570.00
858.00	24763.00
859.00	25020.00
860.00	24450.00
861.00	24808.00
862.00	25155.00
863.00	24803.00
864.00	24986.00
865.00	24811.00
866.00	25083.00
867.00	25134.00
868.00	25241.00
869.00	24951.00
870.00	25179.00
871.00	24993.00
872.00	25695.00
873.00	25526.00
874.00	25375.00
875.00	25462.00
876.00	25862.00
877.00	25660.00
878.00	25719.00
879.00	26199.00
880.00	25898.00
881.00	26217.00
882.00	26546.00
883.00	26459.00
884.00	26735.00
885.00	26988.00
886.00	26681.00
887.00	27289.00
888.00	27163.00
889.00	27396.00
890.00	27902.00
891.00	28002.00
892.00	28347.00
893.00	28768.00
894.00	28884.00
895.00	29001.00
896.00	29736.00
897.00	29809.00
898.00	30183.00
899.00	30838.00
900.00	30916.00
901.00	31624.00
902.00	31894.00
903.00	32065.00
904.00	32719.00
905.00	33275.00
906.00	33546.00
907.00	34384.00
908.00	34858.00
909.00	35408.00
910.00	36136.00
911.00	37165.00
912.00	37939.00
913.00	39151.00
914.00	40065.00
915.00	41868.00
916.00	43898.00
917.00	45500.00
918.00	47389.00
919.00	49946.00
920.00	52481.00
921.00	54946.00
922.00	57621.00
923.00	61023.00
924.00	64241.00
925.00	67666.00
926.00	71798.00
927.00	75851.00
928.00	78938.00
929.00	82896.00
930.00	87113.00
931.00	91100.00
932.00	94314.00
933.00	98202.00
934.00	101273.00
935.00	104426.00
936.00	106593.00
937.00	108592.00
938.00	110419.00
939.00	111857.00
940.00	111617.00
941.00	112627.00
942.00	111908.00
943.00	110032.00
944.00	108883.00
945.00	106462.00
946.00	104531.00
947.00	101444.00
948.00	98098.00
949.00	94736.00
950.00	91080.00
951.00	86625.00
952.00	82767.00
953.00	78889.00
954.00	74686.00
955.00	71133.00
956.00	67028.00
957.00	63558.00
958.00	60242.00
959.00	56521.00
960.00	53310.00
961.00	50741.00
962.00	47838.00
963.00	44988.00
964.00	42374.00
965.00	40304.00
966.00	38545.00
967.00	36554.00
968.00	35228.00
969.00	33516.00
970.00	32186.00
971.00	31402.00
972.00	30165.00
973.00	28793.00
974.00	28332.00
975.00	27965.00
976.00	27168.00
977.00	26546.00
978.00	26292.00
979.00	26006.00
980.00	25847.00
981.00	26276.00
982.00	26476.00
983.00	27160.00
984.00	27775.00
985.00	28786.00
986.00	30415.00
987.00	32112.00
988.00	34088.00
989.00	36057.00
990.00	38134.00
991.00	40547.00
992.00	42628.00
993.00	44487.00
994.00	46301.00
995.00	47847.00
996.00	48331.00
997.00	48824.00
998.00	48257.00
999.00	47238.00
1000.00	45864.00
1001.00	43978.00
1002.00	41489.00
1003.00	38844.00
1004.00	35728.00
1005.00	33544.00
1006.00	30752.00
1007.00	28035.00
1008.00	26344.00
1009.00	24550.00
1010.00	23432.00
1011.00	22341.00
1012.00	21205.00
1013.00	20775.00
1014.00	20459.00
1015.00	20240.00
1016.00	20099.00
1017.00	20008.00
1018.00	19698.00
1019.00	20050.00
1020.00	20178.00
1021.00	20051.00
1022.00	20160.00
1023.00	20482.00
1024.00	20757.00
