Date:	2023-08-21		
Time:	18:11		
Sample name:	MST1B		
Position:	1049.060049	mm	
Sample surface:	5.846364	cm	
Tube anode:	Mo		
Tube voltage:	30	kV	
Tube current:	30	mA	
Comments	not in position		
Gain	0.060000		
peaking_time	1.500000	m-sec	
trigger_threshold	653.076172	V	
mca_bin_width	17.500000	no:	
number_mca_channels	1024.000000	no:	
gap_time	0.080000	m-sec	
trigger_peaking_time	0.060000	m-sec	
livetime	5.841359	seconds	
runtime	10.007462	seconds	
input_count_rate	75415.068672	cps	
output_count_rate	44019.950552	cps	
triggers	0	seconds	
events_in_run	0	seconds	
channel	content		
 1.00	 0.00
 2.00	 0.00
 3.00	 0.00
 4.00	 0.00
 5.00	 0.00
 6.00	 0.00
 7.00	 0.00
 8.00	 0.00
 9.00	 0.00
10.00	 0.00
11.00	 0.00
12.00	 0.00
13.00	 0.00
14.00	 0.00
15.00	 0.00
16.00	 0.00
17.00	 0.00
18.00	 0.00
19.00	 0.00
20.00	 0.00
21.00	 0.00
22.00	 0.00
23.00	 0.00
24.00	 0.00
25.00	 0.00
26.00	 0.00
27.00	 0.00
28.00	 0.00
29.00	 0.00
30.00	 0.00
31.00	 8.00
32.00	 5.00
33.00	11.00
34.00	10.00
35.00	26.00
36.00	32.00
37.00	46.00
38.00	84.00
39.00	111.00
40.00	180.00
41.00	221.00
42.00	345.00
43.00	484.00
44.00	658.00
45.00	856.00
46.00	1224.00
47.00	1539.00
48.00	2051.00
49.00	2614.00
50.00	3270.00
51.00	3989.00
52.00	5035.00
53.00	6254.00
54.00	7448.00
55.00	8652.00
56.00	10033.00
57.00	11749.00
58.00	12992.00
59.00	14725.00
60.00	16278.00
61.00	17654.00
62.00	19083.00
63.00	20526.00
64.00	21572.00
65.00	22977.00
66.00	23638.00
67.00	24313.00
68.00	25078.00
69.00	25556.00
70.00	25568.00
71.00	26283.00
72.00	26143.00
73.00	26371.00
74.00	25749.00
75.00	25671.00
76.00	25658.00
77.00	25361.00
78.00	25338.00
79.00	24947.00
80.00	24830.00
81.00	24689.00
82.00	25148.00
83.00	25313.00
84.00	25411.00
85.00	25387.00
86.00	25328.00
87.00	24529.00
88.00	24180.00
89.00	23032.00
90.00	21915.00
91.00	21126.00
92.00	20441.00
93.00	19891.00
94.00	19647.00
95.00	19246.00
96.00	19059.00
97.00	18678.00
98.00	18636.00
99.00	18152.00
100.00	18422.00
101.00	17960.00
102.00	17951.00
103.00	17975.00
104.00	17962.00
105.00	17564.00
106.00	17552.00
107.00	17417.00
108.00	17221.00
109.00	17080.00
110.00	16833.00
111.00	16753.00
112.00	16495.00
113.00	16267.00
114.00	15964.00
115.00	15520.00
116.00	15108.00
117.00	14832.00
118.00	14803.00
119.00	14384.00
120.00	14279.00
121.00	14001.00
122.00	13723.00
123.00	13403.00
124.00	13153.00
125.00	12966.00
126.00	12893.00
127.00	12948.00
128.00	13106.00
129.00	13097.00
130.00	13062.00
131.00	13176.00
132.00	13491.00
133.00	13401.00
134.00	13080.00
135.00	12646.00
136.00	12023.00
137.00	11432.00
138.00	11166.00
139.00	10641.00
140.00	10327.00
141.00	10146.00
142.00	10190.00
143.00	10031.00
144.00	9760.00
145.00	9540.00
146.00	9643.00
147.00	9509.00
148.00	9426.00
149.00	9697.00
150.00	9283.00
151.00	9256.00
152.00	9165.00
153.00	9169.00
154.00	8728.00
155.00	8811.00
156.00	8559.00
157.00	8226.00
158.00	8297.00
159.00	8295.00
160.00	8342.00
161.00	8505.00
162.00	8911.00
163.00	9833.00
164.00	11294.00
165.00	13022.00
166.00	15606.00
167.00	18179.00
168.00	21310.00
169.00	23020.00
170.00	24020.00
171.00	23843.00
172.00	22302.00
173.00	19710.00
174.00	16995.00
175.00	14157.00
176.00	11717.00
177.00	9979.00
178.00	8996.00
179.00	8503.00
180.00	8327.00
181.00	8318.00
182.00	8430.00
183.00	8640.00
184.00	8507.00
185.00	8698.00
186.00	8235.00
187.00	8050.00
188.00	7572.00
189.00	7391.00
190.00	7312.00
191.00	6882.00
192.00	6815.00
193.00	6651.00
194.00	6478.00
195.00	6541.00
196.00	6329.00
197.00	6363.00
198.00	6437.00
199.00	6347.00
200.00	6376.00
201.00	6389.00
202.00	6735.00
203.00	7122.00
204.00	7818.00
205.00	8648.00
206.00	10054.00
207.00	12086.00
208.00	14262.00
209.00	16634.00
210.00	18750.00
211.00	20843.00
212.00	21660.00
213.00	21196.00
214.00	19776.00
215.00	17473.00
216.00	14987.00
217.00	12460.00
218.00	10490.00
219.00	8809.00
220.00	7730.00
221.00	6968.00
222.00	6826.00
223.00	6753.00
224.00	6831.00
225.00	7108.00
226.00	7222.00
227.00	7726.00
228.00	8107.00
229.00	8193.00
230.00	8623.00
231.00	8643.00
232.00	8525.00
233.00	8229.00
234.00	7725.00
235.00	7385.00
236.00	7264.00
237.00	6824.00
238.00	6628.00
239.00	6586.00
240.00	6631.00
241.00	6729.00
242.00	6602.00
243.00	6627.00
244.00	6743.00
245.00	6728.00
246.00	6650.00
247.00	6908.00
248.00	7027.00
249.00	7050.00
250.00	7039.00
251.00	7224.00
252.00	7552.00
253.00	7853.00
254.00	8453.00
255.00	8730.00
256.00	9035.00
257.00	9532.00
258.00	9872.00
259.00	10225.00
260.00	9967.00
261.00	9917.00
262.00	9687.00
263.00	9555.00
264.00	9157.00
265.00	8956.00
266.00	9018.00
267.00	8736.00
268.00	9020.00
269.00	9049.00
270.00	9095.00
271.00	9159.00
272.00	9370.00
273.00	9421.00
274.00	9476.00
275.00	9811.00
276.00	9848.00
277.00	10225.00
278.00	10480.00
279.00	10612.00
280.00	10843.00
281.00	11257.00
282.00	11355.00
283.00	11581.00
284.00	11727.00
285.00	11768.00
286.00	11822.00
287.00	12199.00
288.00	12352.00
289.00	12237.00
290.00	12473.00
291.00	12676.00
292.00	12752.00
293.00	13102.00
294.00	13086.00
295.00	13796.00
296.00	13556.00
297.00	14107.00
298.00	14425.00
299.00	14502.00
300.00	14777.00
301.00	15200.00
302.00	15322.00
303.00	15819.00
304.00	16000.00
305.00	16541.00
306.00	16808.00
307.00	17209.00
308.00	17369.00
309.00	18113.00
310.00	18331.00
311.00	18481.00
312.00	18663.00
313.00	19163.00
314.00	19126.00
315.00	19051.00
316.00	19144.00
317.00	19641.00
318.00	19366.00
319.00	19954.00
320.00	19957.00
321.00	20259.00
322.00	20465.00
323.00	21046.00
324.00	21241.00
325.00	21806.00
326.00	21954.00
327.00	22164.00
328.00	22569.00
329.00	22990.00
330.00	23585.00
331.00	23882.00
332.00	24163.00
333.00	24370.00
334.00	24837.00
335.00	25154.00
336.00	25727.00
337.00	25698.00
338.00	26237.00
339.00	26893.00
340.00	27110.00
341.00	27043.00
342.00	27315.00
343.00	27633.00
344.00	27879.00
345.00	28374.00
346.00	28243.00
347.00	29145.00
348.00	29141.00
349.00	29344.00
350.00	30203.00
351.00	30398.00
352.00	31075.00
353.00	31426.00
354.00	32577.00
355.00	33210.00
356.00	33690.00
357.00	34701.00
358.00	36421.00
359.00	37457.00
360.00	40162.00
361.00	42746.00
362.00	45754.00
363.00	49442.00
364.00	51991.00
365.00	54852.00
366.00	56810.00
367.00	57417.00
368.00	57801.00
369.00	56966.00
370.00	54955.00
371.00	52857.00
372.00	50068.00
373.00	48232.00
374.00	46645.00
375.00	45315.00
376.00	44588.00
377.00	44020.00
378.00	44731.00
379.00	44742.00
380.00	45839.00
381.00	45943.00
382.00	46346.00
383.00	47007.00
384.00	47560.00
385.00	48361.00
386.00	49067.00
387.00	49709.00
388.00	50048.00
389.00	51062.00
390.00	51906.00
391.00	52991.00
392.00	53131.00
393.00	53844.00
394.00	54813.00
395.00	55845.00
396.00	56747.00
397.00	57717.00
398.00	58584.00
399.00	59577.00
400.00	60789.00
401.00	61671.00
402.00	63328.00
403.00	63863.00
404.00	64898.00
405.00	65546.00
406.00	66370.00
407.00	66580.00
408.00	67304.00
409.00	67445.00
410.00	67633.00
411.00	67857.00
412.00	68473.00
413.00	69498.00
414.00	70008.00
415.00	71143.00
416.00	72733.00
417.00	74098.00
418.00	75272.00
419.00	77316.00
420.00	79882.00
421.00	83217.00
422.00	86328.00
423.00	90851.00
424.00	95371.00
425.00	99760.00
426.00	103235.00
427.00	105740.00
428.00	108220.00
429.00	108487.00
430.00	108279.00
431.00	106228.00
432.00	103318.00
433.00	100733.00
434.00	97524.00
435.00	95069.00
436.00	93720.00
437.00	92399.00
438.00	91747.00
439.00	91981.00
440.00	91862.00
441.00	93048.00
442.00	93810.00
443.00	95025.00
444.00	95539.00
445.00	96647.00
446.00	97704.00
447.00	98647.00
448.00	100589.00
449.00	101186.00
450.00	102342.00
451.00	104362.00
452.00	105399.00
453.00	107198.00
454.00	108209.00
455.00	110474.00
456.00	113098.00
457.00	115778.00
458.00	118202.00
459.00	120562.00
460.00	123562.00
461.00	125275.00
462.00	128226.00
463.00	130426.00
464.00	131788.00
465.00	133444.00
466.00	134525.00
467.00	136275.00
468.00	137505.00
469.00	138430.00
470.00	139734.00
471.00	139906.00
472.00	140585.00
473.00	142073.00
474.00	142484.00
475.00	143056.00
476.00	144133.00
477.00	145259.00
478.00	144825.00
479.00	146236.00
480.00	146959.00
481.00	147392.00
482.00	146226.00
483.00	145330.00
484.00	144545.00
485.00	142824.00
486.00	141700.00
487.00	141331.00
488.00	140312.00
489.00	139842.00
490.00	140372.00
491.00	140224.00
492.00	140630.00
493.00	141829.00
494.00	142807.00
495.00	144259.00
496.00	144507.00
497.00	146170.00
498.00	147222.00
499.00	147832.00
500.00	148952.00
501.00	150724.00
502.00	151261.00
503.00	152846.00
504.00	153645.00
505.00	154751.00
506.00	156049.00
507.00	156888.00
508.00	158553.00
509.00	159891.00
510.00	161327.00
511.00	162627.00
512.00	163612.00
513.00	165245.00
514.00	166603.00
515.00	167884.00
516.00	168756.00
517.00	169741.00
518.00	171622.00
519.00	173007.00
520.00	174867.00
521.00	176523.00
522.00	178178.00
523.00	180606.00
524.00	181572.00
525.00	183824.00
526.00	186122.00
527.00	188558.00
528.00	190973.00
529.00	193399.00
530.00	195094.00
531.00	197511.00
532.00	199416.00
533.00	202215.00
534.00	204243.00
535.00	205439.00
536.00	208041.00
537.00	208498.00
538.00	210300.00
539.00	212430.00
540.00	213257.00
541.00	214335.00
542.00	215382.00
543.00	217366.00
544.00	218887.00
545.00	219788.00
546.00	222525.00
547.00	223870.00
548.00	225211.00
549.00	227620.00
550.00	229764.00
551.00	230457.00
552.00	233065.00
553.00	233395.00
554.00	234451.00
555.00	234599.00
556.00	235409.00
557.00	235159.00
558.00	235513.00
559.00	234924.00
560.00	235180.00
561.00	236082.00
562.00	236836.00
563.00	236387.00
564.00	237438.00
565.00	237780.00
566.00	238559.00
567.00	240859.00
568.00	242375.00
569.00	242925.00
570.00	243719.00
571.00	245330.00
572.00	245052.00
573.00	246790.00
574.00	247244.00
575.00	248708.00
576.00	249443.00
577.00	249998.00
578.00	250966.00
579.00	252584.00
580.00	252913.00
581.00	254955.00
582.00	255782.00
583.00	257004.00
584.00	257443.00
585.00	259148.00
586.00	260635.00
587.00	261941.00
588.00	263384.00
589.00	263595.00
590.00	264847.00
591.00	266681.00
592.00	267769.00
593.00	270615.00
594.00	269826.00
595.00	271189.00
596.00	273299.00
597.00	274324.00
598.00	276362.00
599.00	277490.00
600.00	279308.00
601.00	280540.00
602.00	282371.00
603.00	282533.00
604.00	284917.00
605.00	286116.00
606.00	287298.00
607.00	289879.00
608.00	290667.00
609.00	291777.00
610.00	293966.00
611.00	295422.00
612.00	296179.00
613.00	298510.00
614.00	300675.00
615.00	300773.00
616.00	302400.00
617.00	305008.00
618.00	306512.00
619.00	307335.00
620.00	308806.00
621.00	309699.00
622.00	311641.00
623.00	313402.00
624.00	314084.00
625.00	316169.00
626.00	317380.00
627.00	318169.00
628.00	320548.00
629.00	320509.00
630.00	322245.00
631.00	322907.00
632.00	325332.00
633.00	326368.00
634.00	329287.00
635.00	328991.00
636.00	330903.00
637.00	332462.00
638.00	333900.00
639.00	335585.00
640.00	337938.00
641.00	338500.00
642.00	340159.00
643.00	341856.00
644.00	343762.00
645.00	344771.00
646.00	346263.00
647.00	347570.00
648.00	349042.00
649.00	350534.00
650.00	350568.00
651.00	352303.00
652.00	353242.00
653.00	353680.00
654.00	356005.00
655.00	357458.00
656.00	359972.00
657.00	360404.00
658.00	361387.00
659.00	362014.00
660.00	364274.00
661.00	365696.00
662.00	367441.00
663.00	369182.00
664.00	371717.00
665.00	374399.00
666.00	376816.00
667.00	382522.00
668.00	385785.00
669.00	394467.00
670.00	402898.00
671.00	415105.00
672.00	431352.00
673.00	450827.00
674.00	475875.00
675.00	503457.00
676.00	532554.00
677.00	562963.00
678.00	590279.00
679.00	615351.00
680.00	634248.00
681.00	644889.00
682.00	647119.00
683.00	637633.00
684.00	619204.00
685.00	597579.00
686.00	570844.00
687.00	541924.00
688.00	512621.00
689.00	487985.00
690.00	466280.00
691.00	448536.00
692.00	436501.00
693.00	424574.00
694.00	419315.00
695.00	414211.00
696.00	412732.00
697.00	411816.00
698.00	412259.00
699.00	411959.00
700.00	412558.00
701.00	413439.00
702.00	415119.00
703.00	415979.00
704.00	416588.00
705.00	417928.00
706.00	418460.00
707.00	420391.00
708.00	422210.00
709.00	422487.00
710.00	423992.00
711.00	425511.00
712.00	426748.00
713.00	427594.00
714.00	428267.00
715.00	430912.00
716.00	430570.00
717.00	431691.00
718.00	432884.00
719.00	434475.00
720.00	435888.00
721.00	436209.00
722.00	436332.00
723.00	438024.00
724.00	440507.00
725.00	440711.00
726.00	440826.00
727.00	442887.00
728.00	443439.00
729.00	444232.00
730.00	445350.00
731.00	446148.00
732.00	447923.00
733.00	448163.00
734.00	449118.00
735.00	450505.00
736.00	450685.00
737.00	452233.00
738.00	453574.00
739.00	454110.00
740.00	454807.00
741.00	457588.00
742.00	457110.00
743.00	458633.00
744.00	460484.00
745.00	461651.00
746.00	461586.00
747.00	464431.00
748.00	465384.00
749.00	470048.00
750.00	471453.00
751.00	475044.00
752.00	478110.00
753.00	484157.00
754.00	490491.00
755.00	495766.00
756.00	502991.00
757.00	508562.00
758.00	513392.00
759.00	517867.00
760.00	518767.00
761.00	518126.00
762.00	517922.00
763.00	514633.00
764.00	511702.00
765.00	507744.00
766.00	502616.00
767.00	498725.00
768.00	495283.00
769.00	492626.00
770.00	488536.00
771.00	486333.00
772.00	485331.00
773.00	483161.00
774.00	483653.00
775.00	482870.00
776.00	483297.00
777.00	482823.00
778.00	482539.00
779.00	483605.00
780.00	483884.00
781.00	484312.00
782.00	484287.00
783.00	484922.00
784.00	485126.00
785.00	486352.00
786.00	485889.00
787.00	486892.00
788.00	488579.00
789.00	488336.00
790.00	489314.00
791.00	487853.00
792.00	490334.00
793.00	491462.00
794.00	492194.00
795.00	491668.00
796.00	495006.00
797.00	494163.00
798.00	496434.00
799.00	498075.00
800.00	498812.00
801.00	501107.00
802.00	503206.00
803.00	506132.00
804.00	508623.00
805.00	510263.00
806.00	512160.00
807.00	513984.00
808.00	515358.00
809.00	515823.00
810.00	516493.00
811.00	515691.00
812.00	515199.00
813.00	515239.00
814.00	513299.00
815.00	512392.00
816.00	511637.00
817.00	510772.00
818.00	509227.00
819.00	508266.00
820.00	510211.00
821.00	509592.00
822.00	508226.00
823.00	509464.00
824.00	508750.00
825.00	507920.00
826.00	510227.00
827.00	509988.00
828.00	510358.00
829.00	510171.00
830.00	511585.00
831.00	512754.00
832.00	513982.00
833.00	513551.00
834.00	516145.00
835.00	515994.00
836.00	515629.00
837.00	515396.00
838.00	516636.00
839.00	518339.00
840.00	518798.00
841.00	518806.00
842.00	520015.00
843.00	519649.00
844.00	519754.00
845.00	520557.00
846.00	523672.00
847.00	522438.00
848.00	523593.00
849.00	524267.00
850.00	525399.00
851.00	524922.00
852.00	526746.00
853.00	527313.00
854.00	527928.00
855.00	528257.00
856.00	528724.00
857.00	529992.00
858.00	530196.00
859.00	531867.00
860.00	532710.00
861.00	534132.00
862.00	535457.00
863.00	536187.00
864.00	536215.00
865.00	536823.00
866.00	538857.00
867.00	540054.00
868.00	540769.00
869.00	542486.00
870.00	545521.00
871.00	545570.00
872.00	546709.00
873.00	548886.00
874.00	550973.00
875.00	551532.00
876.00	553823.00
877.00	557178.00
878.00	557483.00
879.00	559808.00
880.00	560913.00
881.00	564521.00
882.00	567466.00
883.00	570821.00
884.00	572325.00
885.00	575183.00
886.00	579902.00
887.00	582410.00
888.00	585370.00
889.00	588942.00
890.00	592284.00
891.00	595576.00
892.00	602616.00
893.00	606343.00
894.00	611322.00
895.00	616671.00
896.00	621867.00
897.00	630209.00
898.00	635969.00
899.00	642469.00
900.00	651129.00
901.00	660136.00
902.00	668552.00
903.00	677594.00
904.00	689879.00
905.00	698034.00
906.00	712767.00
907.00	724535.00
908.00	739255.00
909.00	754094.00
910.00	774591.00
911.00	791521.00
912.00	816263.00
913.00	840754.00
914.00	867875.00
915.00	898839.00
916.00	932090.00
917.00	970133.00
918.00	1013205.00
919.00	1060038.00
920.00	1111144.00
921.00	1166505.00
922.00	1228028.00
923.00	1292505.00
924.00	1364110.00
925.00	1439307.00
926.00	1515304.00
927.00	1597580.00
928.00	1679240.00
929.00	1765518.00
930.00	1847400.00
931.00	1927445.00
932.00	2006482.00
933.00	2082199.00
934.00	2149871.00
935.00	2216054.00
936.00	2268493.00
937.00	2311392.00
938.00	2345510.00
939.00	2370755.00
940.00	2382573.00
941.00	2382763.00
942.00	2370335.00
943.00	2347718.00
944.00	2317602.00
945.00	2270983.00
946.00	2219414.00
947.00	2156048.00
948.00	2088294.00
949.00	2017231.00
950.00	1935573.00
951.00	1854385.00
952.00	1768736.00
953.00	1683507.00
954.00	1595066.00
955.00	1511246.00
956.00	1428053.00
957.00	1348783.00
958.00	1271833.00
959.00	1201298.00
960.00	1130739.00
961.00	1068188.00
962.00	1009336.00
963.00	953799.00
964.00	902226.00
965.00	855133.00
966.00	813816.00
967.00	774141.00
968.00	739277.00
969.00	708058.00
970.00	677553.00
971.00	652813.00
972.00	630510.00
973.00	611291.00
974.00	594465.00
975.00	578944.00
976.00	565570.00
977.00	555577.00
978.00	548068.00
979.00	543811.00
980.00	542637.00
981.00	543139.00
982.00	549316.00
983.00	560993.00
984.00	577187.00
985.00	596703.00
986.00	625691.00
987.00	657817.00
988.00	694864.00
989.00	736218.00
990.00	781202.00
991.00	828865.00
992.00	870888.00
993.00	914343.00
994.00	948917.00
995.00	978576.00
996.00	996081.00
997.00	1001891.00
998.00	996889.00
999.00	975723.00
1000.00	947622.00
1001.00	904255.00
1002.00	856381.00
1003.00	802333.00
1004.00	745535.00
1005.00	690573.00
1006.00	637402.00
1007.00	589762.00
1008.00	547722.00
1009.00	511991.00
1010.00	482984.00
1011.00	460905.00
1012.00	443413.00
1013.00	432639.00
1014.00	424756.00
1015.00	417710.00
1016.00	415422.00
1017.00	414059.00
1018.00	412498.00
1019.00	415313.00
1020.00	416921.00
1021.00	418446.00
1022.00	420313.00
1023.00	424203.00
1024.00	427599.00
