Date:	2023-08-24		
Time:	12:10		
Sample name:	MI1H_I_J		
Position:	514.000049	mm	
Sample surface:	4.853853	cm	
Tube anode:	Mo		
Tube voltage:	30	kV	
Tube current:	30	mA	
Comments	not in position		
Gain	0.060000		
peaking_time	1.500000	m-sec	
trigger_threshold	653.076172	V	
mca_bin_width	17.500000	no:	
number_mca_channels	1024.000000	no:	
gap_time	0.080000	m-sec	
trigger_peaking_time	0.060000	m-sec	
livetime	5.807193	seconds	
runtime	10.006811	seconds	
input_count_rate	81818.982828	cps	
output_count_rate	47482.458748	cps	
triggers	0	seconds	
events_in_run	0	seconds	
channel	content		
 1.00	 0.00
 2.00	 0.00
 3.00	 0.00
 4.00	 0.00
 5.00	 0.00
 6.00	 0.00
 7.00	 0.00
 8.00	 0.00
 9.00	 0.00
10.00	 0.00
11.00	 0.00
12.00	 0.00
13.00	 0.00
14.00	 0.00
15.00	 0.00
16.00	 0.00
17.00	 0.00
18.00	 0.00
19.00	 0.00
20.00	 0.00
21.00	 0.00
22.00	 0.00
23.00	 0.00
24.00	 0.00
25.00	 0.00
26.00	 0.00
27.00	 0.00
28.00	 0.00
29.00	 0.00
30.00	 0.00
31.00	 2.00
32.00	 5.00
33.00	 2.00
34.00	 7.00
35.00	14.00
36.00	24.00
37.00	29.00
38.00	50.00
39.00	53.00
40.00	86.00
41.00	144.00
42.00	181.00
43.00	245.00
44.00	361.00
45.00	499.00
46.00	618.00
47.00	870.00
48.00	1118.00
49.00	1466.00
50.00	1872.00
51.00	2268.00
52.00	2812.00
53.00	3436.00
54.00	4053.00
55.00	4789.00
56.00	5556.00
57.00	6404.00
58.00	7337.00
59.00	7980.00
60.00	8891.00
61.00	9611.00
62.00	10410.00
63.00	11309.00
64.00	12076.00
65.00	12743.00
66.00	13044.00
67.00	13468.00
68.00	13791.00
69.00	14060.00
70.00	14414.00
71.00	14347.00
72.00	14804.00
73.00	14437.00
74.00	14378.00
75.00	14128.00
76.00	14141.00
77.00	13846.00
78.00	13803.00
79.00	13824.00
80.00	13700.00
81.00	13768.00
82.00	13858.00
83.00	13968.00
84.00	14075.00
85.00	13780.00
86.00	14028.00
87.00	13725.00
88.00	13206.00
89.00	12670.00
90.00	12312.00
91.00	11960.00
92.00	11373.00
93.00	10916.00
94.00	10824.00
95.00	10637.00
96.00	10498.00
97.00	10423.00
98.00	10546.00
99.00	10369.00
100.00	10063.00
101.00	10147.00
102.00	9963.00
103.00	9953.00
104.00	9878.00
105.00	9861.00
106.00	9867.00
107.00	9679.00
108.00	9588.00
109.00	9447.00
110.00	9555.00
111.00	9213.00
112.00	9220.00
113.00	9011.00
114.00	8697.00
115.00	8725.00
116.00	8576.00
117.00	8412.00
118.00	8269.00
119.00	8061.00
120.00	7898.00
121.00	7699.00
122.00	7517.00
123.00	7394.00
124.00	7228.00
125.00	7146.00
126.00	7162.00
127.00	7188.00
128.00	7078.00
129.00	6969.00
130.00	6942.00
131.00	6900.00
132.00	6972.00
133.00	6934.00
134.00	6713.00
135.00	6536.00
136.00	6386.00
137.00	6056.00
138.00	5924.00
139.00	5913.00
140.00	5734.00
141.00	5607.00
142.00	5495.00
143.00	5350.00
144.00	5383.00
145.00	5248.00
146.00	5244.00
147.00	5174.00
148.00	5252.00
149.00	5028.00
150.00	4993.00
151.00	5045.00
152.00	4898.00
153.00	4821.00
154.00	4765.00
155.00	4868.00
156.00	4757.00
157.00	4824.00
158.00	4759.00
159.00	4711.00
160.00	4812.00
161.00	4892.00
162.00	5180.00
163.00	5549.00
164.00	6149.00
165.00	7131.00
166.00	8248.00
167.00	9563.00
168.00	10886.00
169.00	11779.00
170.00	12242.00
171.00	12019.00
172.00	11492.00
173.00	10132.00
174.00	8637.00
175.00	7385.00
176.00	6174.00
177.00	5473.00
178.00	4882.00
179.00	4667.00
180.00	4677.00
181.00	4560.00
182.00	4717.00
183.00	4826.00
184.00	4767.00
185.00	4611.00
186.00	4560.00
187.00	4398.00
188.00	4448.00
189.00	4289.00
190.00	4031.00
191.00	4178.00
192.00	3957.00
193.00	3783.00
194.00	3628.00
195.00	3764.00
196.00	3606.00
197.00	3512.00
198.00	3541.00
199.00	3603.00
200.00	3651.00
201.00	3601.00
202.00	3660.00
203.00	3904.00
204.00	4223.00
205.00	4838.00
206.00	5454.00
207.00	6491.00
208.00	7587.00
209.00	9044.00
210.00	10052.00
211.00	10948.00
212.00	11301.00
213.00	11090.00
214.00	10389.00
215.00	9105.00
216.00	7953.00
217.00	6789.00
218.00	5543.00
219.00	4710.00
220.00	4319.00
221.00	3861.00
222.00	3839.00
223.00	3792.00
224.00	3828.00
225.00	3919.00
226.00	4076.00
227.00	4311.00
228.00	4489.00
229.00	4704.00
230.00	4809.00
231.00	4800.00
232.00	4805.00
233.00	4577.00
234.00	4395.00
235.00	4268.00
236.00	4055.00
237.00	3749.00
238.00	3870.00
239.00	3728.00
240.00	3633.00
241.00	3724.00
242.00	3670.00
243.00	3756.00
244.00	3757.00
245.00	3871.00
246.00	4009.00
247.00	4284.00
248.00	4550.00
249.00	5136.00
250.00	6362.00
251.00	8101.00
252.00	10300.00
253.00	13259.00
254.00	17042.00
255.00	21534.00
256.00	26110.00
257.00	30180.00
258.00	33332.00
259.00	33652.00
260.00	33007.00
261.00	30357.00
262.00	26554.00
263.00	22541.00
264.00	18427.00
265.00	14785.00
266.00	11986.00
267.00	10039.00
268.00	8786.00
269.00	7769.00
270.00	7130.00
271.00	6813.00
272.00	6547.00
273.00	6534.00
274.00	6527.00
275.00	6792.00
276.00	7213.00
277.00	7802.00
278.00	8599.00
279.00	9673.00
280.00	10498.00
281.00	11463.00
282.00	11966.00
283.00	12293.00
284.00	12260.00
285.00	12008.00
286.00	11362.00
287.00	10537.00
288.00	9864.00
289.00	9063.00
290.00	8560.00
291.00	8089.00
292.00	7816.00
293.00	7880.00
294.00	7865.00
295.00	7891.00
296.00	8018.00
297.00	7918.00
298.00	8328.00
299.00	8601.00
300.00	8677.00
301.00	8929.00
302.00	9285.00
303.00	9280.00
304.00	9620.00
305.00	9810.00
306.00	10091.00
307.00	10555.00
308.00	10730.00
309.00	11011.00
310.00	11043.00
311.00	11153.00
312.00	11323.00
313.00	11344.00
314.00	11259.00
315.00	11399.00
316.00	11484.00
317.00	11284.00
318.00	11397.00
319.00	11407.00
320.00	11666.00
321.00	11713.00
322.00	11845.00
323.00	12178.00
324.00	12194.00
325.00	12551.00
326.00	12675.00
327.00	12932.00
328.00	13003.00
329.00	13267.00
330.00	13804.00
331.00	13844.00
332.00	14227.00
333.00	14622.00
334.00	15388.00
335.00	15454.00
336.00	15634.00
337.00	16106.00
338.00	16430.00
339.00	16761.00
340.00	16736.00
341.00	17078.00
342.00	16986.00
343.00	16540.00
344.00	16863.00
345.00	16935.00
346.00	17072.00
347.00	17282.00
348.00	17772.00
349.00	18129.00
350.00	18643.00
351.00	19454.00
352.00	20680.00
353.00	22149.00
354.00	25423.00
355.00	31035.00
356.00	39732.00
357.00	54402.00
358.00	75124.00
359.00	106797.00
360.00	148923.00
361.00	203493.00
362.00	266381.00
363.00	335711.00
364.00	403272.00
365.00	459366.00
366.00	495887.00
367.00	509239.00
368.00	495539.00
369.00	455132.00
370.00	396458.00
371.00	328843.00
372.00	259159.00
373.00	195889.00
374.00	142958.00
375.00	102356.00
376.00	72949.00
377.00	53449.00
378.00	41411.00
379.00	34321.00
380.00	30843.00
381.00	29167.00
382.00	28838.00
383.00	28329.00
384.00	28648.00
385.00	28793.00
386.00	29354.00
387.00	29693.00
388.00	30183.00
389.00	30995.00
390.00	31785.00
391.00	32474.00
392.00	34292.00
393.00	36213.00
394.00	38759.00
395.00	42431.00
396.00	47297.00
397.00	54510.00
398.00	62233.00
399.00	72214.00
400.00	82945.00
401.00	94177.00
402.00	103550.00
403.00	110486.00
404.00	114268.00
405.00	114471.00
406.00	110029.00
407.00	102893.00
408.00	93134.00
409.00	82960.00
410.00	72696.00
411.00	63063.00
412.00	55611.00
413.00	48969.00
414.00	46031.00
415.00	43652.00
416.00	42264.00
417.00	42239.00
418.00	42572.00
419.00	43109.00
420.00	44501.00
421.00	45968.00
422.00	47799.00
423.00	50449.00
424.00	52891.00
425.00	55516.00
426.00	57217.00
427.00	59308.00
428.00	59462.00
429.00	60331.00
430.00	59659.00
431.00	58301.00
432.00	57012.00
433.00	55526.00
434.00	53904.00
435.00	52475.00
436.00	52071.00
437.00	51298.00
438.00	50871.00
439.00	50864.00
440.00	51294.00
441.00	51348.00
442.00	51772.00
443.00	53057.00
444.00	52896.00
445.00	53792.00
446.00	54256.00
447.00	54352.00
448.00	55572.00
449.00	56340.00
450.00	57621.00
451.00	57576.00
452.00	58446.00
453.00	59626.00
454.00	61070.00
455.00	62342.00
456.00	63947.00
457.00	65425.00
458.00	66541.00
459.00	68330.00
460.00	69489.00
461.00	71441.00
462.00	72223.00
463.00	73424.00
464.00	74156.00
465.00	75434.00
466.00	76002.00
467.00	76915.00
468.00	77121.00
469.00	77847.00
470.00	77620.00
471.00	77939.00
472.00	78310.00
473.00	79209.00
474.00	79562.00
475.00	80058.00
476.00	81050.00
477.00	81196.00
478.00	81976.00
479.00	81938.00
480.00	82556.00
481.00	82059.00
482.00	82070.00
483.00	81009.00
484.00	80509.00
485.00	80521.00
486.00	79049.00
487.00	78645.00
488.00	79006.00
489.00	78893.00
490.00	78811.00
491.00	78928.00
492.00	79039.00
493.00	80537.00
494.00	81445.00
495.00	81218.00
496.00	82166.00
497.00	82266.00
498.00	82876.00
499.00	83264.00
500.00	83806.00
501.00	84171.00
502.00	84631.00
503.00	85630.00
504.00	86170.00
505.00	86393.00
506.00	87425.00
507.00	87303.00
508.00	88450.00
509.00	89573.00
510.00	89728.00
511.00	90952.00
512.00	91008.00
513.00	92615.00
514.00	93079.00
515.00	93310.00
516.00	94201.00
517.00	94901.00
518.00	95648.00
519.00	96449.00
520.00	97470.00
521.00	98261.00
522.00	99903.00
523.00	100604.00
524.00	101400.00
525.00	103273.00
526.00	104411.00
527.00	105499.00
528.00	106794.00
529.00	108339.00
530.00	109439.00
531.00	110463.00
532.00	112177.00
533.00	113245.00
534.00	113433.00
535.00	114991.00
536.00	116052.00
537.00	116948.00
538.00	117407.00
539.00	118227.00
540.00	119220.00
541.00	119832.00
542.00	120426.00
543.00	121171.00
544.00	122144.00
545.00	123167.00
546.00	124052.00
547.00	124831.00
548.00	126274.00
549.00	127145.00
550.00	127711.00
551.00	129508.00
552.00	129602.00
553.00	129916.00
554.00	131197.00
555.00	130866.00
556.00	131224.00
557.00	131358.00
558.00	131582.00
559.00	131096.00
560.00	131649.00
561.00	131599.00
562.00	131507.00
563.00	130911.00
564.00	132060.00
565.00	132119.00
566.00	133401.00
567.00	133898.00
568.00	135468.00
569.00	135398.00
570.00	135765.00
571.00	136048.00
572.00	137154.00
573.00	137329.00
574.00	137445.00
575.00	138526.00
576.00	138815.00
577.00	138918.00
578.00	139761.00
579.00	140231.00
580.00	140661.00
581.00	141709.00
582.00	141785.00
583.00	142735.00
584.00	143354.00
585.00	143952.00
586.00	145258.00
587.00	145950.00
588.00	146125.00
589.00	146881.00
590.00	147817.00
591.00	148943.00
592.00	149269.00
593.00	150540.00
594.00	151191.00
595.00	151221.00
596.00	151619.00
597.00	152888.00
598.00	153584.00
599.00	153923.00
600.00	155569.00
601.00	155817.00
602.00	156784.00
603.00	158158.00
604.00	158828.00
605.00	159823.00
606.00	159790.00
607.00	160419.00
608.00	161375.00
609.00	162718.00
610.00	162878.00
611.00	164007.00
612.00	164778.00
613.00	166031.00
614.00	166808.00
615.00	167844.00
616.00	168503.00
617.00	168799.00
618.00	169832.00
619.00	170842.00
620.00	171205.00
621.00	172306.00
622.00	173989.00
623.00	173850.00
624.00	175350.00
625.00	175808.00
626.00	176781.00
627.00	177022.00
628.00	176953.00
629.00	178870.00
630.00	179130.00
631.00	180004.00
632.00	179990.00
633.00	181479.00
634.00	181190.00
635.00	182674.00
636.00	184554.00
637.00	184586.00
638.00	185210.00
639.00	186211.00
640.00	187405.00
641.00	187806.00
642.00	188323.00
643.00	189027.00
644.00	189977.00
645.00	190958.00
646.00	191389.00
647.00	192823.00
648.00	192407.00
649.00	193260.00
650.00	194114.00
651.00	194877.00
652.00	195095.00
653.00	195684.00
654.00	197011.00
655.00	197679.00
656.00	197866.00
657.00	198384.00
658.00	199807.00
659.00	200192.00
660.00	201697.00
661.00	202070.00
662.00	202705.00
663.00	203134.00
664.00	204648.00
665.00	204996.00
666.00	205916.00
667.00	207891.00
668.00	209010.00
669.00	210918.00
670.00	213317.00
671.00	216611.00
672.00	221180.00
673.00	225117.00
674.00	231412.00
675.00	237194.00
676.00	242910.00
677.00	250081.00
678.00	255992.00
679.00	261651.00
680.00	266626.00
681.00	267776.00
682.00	269408.00
683.00	267367.00
684.00	264710.00
685.00	259635.00
686.00	255455.00
687.00	249784.00
688.00	243553.00
689.00	240063.00
690.00	235394.00
691.00	230944.00
692.00	229872.00
693.00	227571.00
694.00	227455.00
695.00	225375.00
696.00	226557.00
697.00	227096.00
698.00	226611.00
699.00	227349.00
700.00	227374.00
701.00	228571.00
702.00	229031.00
703.00	229988.00
704.00	231235.00
705.00	231745.00
706.00	232191.00
707.00	232845.00
708.00	233942.00
709.00	233770.00
710.00	235012.00
711.00	234809.00
712.00	236070.00
713.00	236247.00
714.00	237394.00
715.00	237796.00
716.00	239112.00
717.00	239419.00
718.00	239992.00
719.00	240060.00
720.00	240361.00
721.00	241431.00
722.00	242464.00
723.00	242720.00
724.00	243156.00
725.00	243828.00
726.00	244076.00
727.00	244370.00
728.00	244735.00
729.00	245063.00
730.00	245720.00
731.00	246271.00
732.00	246948.00
733.00	247815.00
734.00	248264.00
735.00	249004.00
736.00	249249.00
737.00	250102.00
738.00	249015.00
739.00	250520.00
740.00	250273.00
741.00	251651.00
742.00	252486.00
743.00	252701.00
744.00	253718.00
745.00	254107.00
746.00	254056.00
747.00	255711.00
748.00	255398.00
749.00	256794.00
750.00	256586.00
751.00	258424.00
752.00	260322.00
753.00	261609.00
754.00	263257.00
755.00	264735.00
756.00	266147.00
757.00	268209.00
758.00	267841.00
759.00	269122.00
760.00	269354.00
761.00	269585.00
762.00	270136.00
763.00	271031.00
764.00	270107.00
765.00	269796.00
766.00	268499.00
767.00	267927.00
768.00	267399.00
769.00	266690.00
770.00	265800.00
771.00	265861.00
772.00	266226.00
773.00	266556.00
774.00	265422.00
775.00	266309.00
776.00	266003.00
777.00	266449.00
778.00	267136.00
779.00	266584.00
780.00	266667.00
781.00	268005.00
782.00	267329.00
783.00	268051.00
784.00	268132.00
785.00	268662.00
786.00	268821.00
787.00	268886.00
788.00	269748.00
789.00	269575.00
790.00	269676.00
791.00	270327.00
792.00	270868.00
793.00	271660.00
794.00	271259.00
795.00	272856.00
796.00	274263.00
797.00	273922.00
798.00	274865.00
799.00	274954.00
800.00	276628.00
801.00	276988.00
802.00	277756.00
803.00	279782.00
804.00	280674.00
805.00	282220.00
806.00	284006.00
807.00	283364.00
808.00	284356.00
809.00	284487.00
810.00	284409.00
811.00	284767.00
812.00	284226.00
813.00	284157.00
814.00	282480.00
815.00	283603.00
816.00	282131.00
817.00	280963.00
818.00	281083.00
819.00	281546.00
820.00	281328.00
821.00	280296.00
822.00	280544.00
823.00	279720.00
824.00	280249.00
825.00	281423.00
826.00	281980.00
827.00	282009.00
828.00	281121.00
829.00	282248.00
830.00	282732.00
831.00	282354.00
832.00	284086.00
833.00	284601.00
834.00	284496.00
835.00	284754.00
836.00	285378.00
837.00	284160.00
838.00	285487.00
839.00	285195.00
840.00	285805.00
841.00	286171.00
842.00	287095.00
843.00	287030.00
844.00	287123.00
845.00	288386.00
846.00	288677.00
847.00	288006.00
848.00	289327.00
849.00	289479.00
850.00	289432.00
851.00	290788.00
852.00	291704.00
853.00	291399.00
854.00	291353.00
855.00	291499.00
856.00	292092.00
857.00	292811.00
858.00	293537.00
859.00	293410.00
860.00	294352.00
861.00	294850.00
862.00	293701.00
863.00	294953.00
864.00	295862.00
865.00	295908.00
866.00	297009.00
867.00	297645.00
868.00	297991.00
869.00	298198.00
870.00	299401.00
871.00	300361.00
872.00	301298.00
873.00	302200.00
874.00	303644.00
875.00	303763.00
876.00	303664.00
877.00	305956.00
878.00	307175.00
879.00	306957.00
880.00	310007.00
881.00	309782.00
882.00	312692.00
883.00	313190.00
884.00	315580.00
885.00	315844.00
886.00	317828.00
887.00	320472.00
888.00	321509.00
889.00	323980.00
890.00	327245.00
891.00	328471.00
892.00	332096.00
893.00	334847.00
894.00	337578.00
895.00	339971.00
896.00	344486.00
897.00	347801.00
898.00	352153.00
899.00	355959.00
900.00	360917.00
901.00	363554.00
902.00	369411.00
903.00	374266.00
904.00	380109.00
905.00	385209.00
906.00	392421.00
907.00	398334.00
908.00	405363.00
909.00	414182.00
910.00	423225.00
911.00	434870.00
912.00	445770.00
913.00	458508.00
914.00	474089.00
915.00	489823.00
916.00	507433.00
917.00	529946.00
918.00	552585.00
919.00	577662.00
920.00	605080.00
921.00	635921.00
922.00	668332.00
923.00	703712.00
924.00	742006.00
925.00	782612.00
926.00	826337.00
927.00	868962.00
928.00	914974.00
929.00	960516.00
930.00	1008241.00
931.00	1050947.00
932.00	1095713.00
933.00	1138518.00
934.00	1177721.00
935.00	1213141.00
936.00	1241852.00
937.00	1266680.00
938.00	1288085.00
939.00	1301061.00
940.00	1307904.00
941.00	1309786.00
942.00	1304987.00
943.00	1295758.00
944.00	1276333.00
945.00	1255736.00
946.00	1227059.00
947.00	1193440.00
948.00	1156982.00
949.00	1115452.00
950.00	1072088.00
951.00	1029504.00
952.00	982004.00
953.00	932072.00
954.00	887715.00
955.00	840430.00
956.00	794857.00
957.00	749115.00
958.00	707125.00
959.00	666210.00
960.00	627811.00
961.00	593284.00
962.00	559388.00
963.00	529964.00
964.00	501050.00
965.00	474799.00
966.00	450571.00
967.00	428445.00
968.00	408921.00
969.00	390515.00
970.00	376131.00
971.00	360983.00
972.00	348992.00
973.00	338713.00
974.00	327023.00
975.00	319533.00
976.00	313083.00
977.00	306332.00
978.00	303478.00
979.00	300687.00
980.00	299992.00
981.00	301543.00
982.00	304422.00
983.00	311702.00
984.00	321300.00
985.00	332507.00
986.00	347745.00
987.00	367266.00
988.00	388936.00
989.00	412638.00
990.00	438068.00
991.00	462732.00
992.00	486880.00
993.00	509747.00
994.00	530234.00
995.00	545038.00
996.00	553617.00
997.00	557945.00
998.00	553359.00
999.00	542527.00
1000.00	525034.00
1001.00	500766.00
1002.00	472244.00
1003.00	440949.00
1004.00	412486.00
1005.00	380556.00
1006.00	351031.00
1007.00	324314.00
1008.00	302042.00
1009.00	282690.00
1010.00	265580.00
1011.00	255091.00
1012.00	244424.00
1013.00	237031.00
1014.00	233638.00
1015.00	229644.00
1016.00	227942.00
1017.00	227435.00
1018.00	227900.00
1019.00	227416.00
1020.00	228687.00
1021.00	229421.00
1022.00	230389.00
1023.00	232882.00
1024.00	235430.00
